workerid,proliferate.condition,bothQuestionsCorrect,condition,correct,failed_audio,failed_images,failed_video,first,gender,internal_node_id,participant_hypothesis,question_order,response,rt,second,status,stimulus,success,tech_difficulty,time_elapsed,timeout,trial_index,trial_type,error
227,Spatial,True,spatial,,,,,males,Female,0.0-0.0,This study is trying to compare the spatial abilities between males and females,,,,spatial,,,True,,6035,,0,fullscreen,
227,Spatial,True,spatial,,[],[],[],males,Female,0.0-1.0,This study is trying to compare the spatial abilities between males and females,,,,spatial,,,True,,8335,False,1,preload,
227,Spatial,True,spatial,,,,,males,Female,0.0-2.0,This study is trying to compare the spatial abilities between males and females,,0,3802,spatial,,"<div style=""text-align: left;padding: 0 20vw;""><p style=""font-size:20px; color:black;""><p>By answering the following questions, you are participating in a study being performed by cognitive scientists in the Stanford Department of Psychology. </p><p>If you have questions about this research, please contact us at stanfordpsych251@gmail.com. </p><p>You must be at least 18 years old to participate. Your participation in this research is voluntary. You may decline to answer any or all of the following questions. You may decline further participation, at any time, without adverse consequences. </p><p>Your anonymity is assured; the researchers who have requested your participation will not receive any personal information about you.</p>",,,12138,,2,html-button-response,
227,Spatial,True,spatial,,,,,males,Female,0.0-3.0,This study is trying to compare the spatial abilities between males and females,,0,6184,spatial,,"<div style=""text-align: left;padding: 0 20vw;""><p style=""font-size:20px; color:black;"">Our experiment is a task that tests your perspective taking ability.</p>",,,18325,,3,html-button-response,
227,Spatial,True,spatial,,,,,males,Female,0.0-4.0,This study is trying to compare the spatial abilities between males and females,,0,3841,spatial,,"<div style=""text-align: left;padding: 0 20vw;""><p style=""font-size:20px; color:black;"">Perspective taking ability can be thought of as a measure of <strong>spatial ability</strong>.</p>",,,22169,,4,html-button-response,
227,Spatial,True,spatial,,,,,males,Female,0.0-5.0,This study is trying to compare the spatial abilities between males and females,,0,7687,spatial,,"<div style=""text-align: left;padding: 0 20vw;""><p style=""font-size:20px; color:black;""><p>Spatial ability is a cognitive ability that is defined as understanding the relations between objects in space and being able to mentally manipulate them and respond correctly.</p>",,,29857,,5,html-button-response,
227,Spatial,True,spatial,,,,,males,Female,0.0-6.0,This study is trying to compare the spatial abilities between males and females,,0,4357,spatial,,"<div style=""text-align: left;padding: 0 20vw;""><p style=""font-size:20px; color:black;"">Previous studies have shown that <strong>males often score higher on measures of spatial ability</strong>.</p>",,,34216,,6,html-button-response,
227,Spatial,True,spatial,,,,,males,Female,0.0-7.0,This study is trying to compare the spatial abilities between males and females,,"{'first': 'males', 'second': 'spatial'}",10204,spatial,,,,,44424,,7,survey-html-form,
227,Spatial,True,spatial,,,,,males,Female,0.0-8.0,This study is trying to compare the spatial abilities between males and females,,0,27072,spatial,,"<div style=""text-align: left;padding: 0 20vw;""><p>In this test, you will be shown a map of a city with a path drawn through it. </p>
      <p>Imagine yourself taking a walk through the path, following the direction of the dashed line.</p> 
      <p>At each turn that the path takes, which will be circled, 
      your task is to decide whether you would turn to your right or your left as you are walking. </p>
      <p>If it is a <strong> right turn</strong>, click on the <strong> right arrow key</strong>  on your keyboard,</p>
      <p>and if it is a <strong> left turn</strong>, click on the <strong> left arrow key</strong>  on your keyboard.</p>
      <p>You will first see three practice trials. </p>
      <p>Please do not turn your computer screen/head.</p>",,,71497,,8,html-button-response,
227,Spatial,True,spatial,,,,,males,Female,0.0-9.0,This study is trying to compare the spatial abilities between males and females,,0,6565,spatial,,"<div style=""text-align: left;padding: 0 20vw;""><p style=""font-size:20px; color:black;"">You will first see three practice trials</p><p><p>If it is a <strong> right turn</strong>, click on the <strong> right arrow key</strong>  on your keyboard,</p><p>and if it is a <strong> left turn</strong>, click on the <strong> left arrow key</strong>  on your keyboard.</p> ",,,78065,,9,html-button-response,
227,Spatial,True,spatial,,,,,males,Female,0.0-10.0-0.0,This study is trying to compare the spatial abilities between males and females,,arrowleft,6034,spatial,,img/spatial/version2/p1.png,,,84130,,10,image-keyboard-response,
227,Spatial,True,spatial,,,,,males,Female,0.0-10.0-1.0,This study is trying to compare the spatial abilities between males and females,,arrowright,2770,spatial,,img/spatial/version2/p2.png,,,86923,,11,image-keyboard-response,
227,Spatial,True,spatial,,,,,males,Female,0.0-10.0-2.0,This study is trying to compare the spatial abilities between males and females,,arrowright,2008,spatial,,img/spatial/version2/p3.png,,,88956,,12,image-keyboard-response,
227,Spatial,True,spatial,,,,,males,Female,0.0-11.0,This study is trying to compare the spatial abilities between males and females,,0,2996,spatial,,"<div style=""text-align: left;padding: 0 20vw;""><p style=""font-size:20px; color:black;""> Now, you will have 30 seconds to complete as many of the 32 trials as you can.",,,91952,,13,html-button-response,
227,Spatial,True,spatial,True,,,,males,Female,0.0-12.0-0.0,This study is trying to compare the spatial abilities between males and females,,arrowleft,2493,spatial,,img/spatial/version2/1.png,,,94479,,14,image-keyboard-response,
227,Spatial,True,spatial,False,,,,males,Female,0.0-12.0-0.1,This study is trying to compare the spatial abilities between males and females,,arrowright,860,spatial,,img/spatial/version2/2.png,,,95375,,15,image-keyboard-response,
227,Spatial,True,spatial,True,,,,males,Female,0.0-12.0-0.2,This study is trying to compare the spatial abilities between males and females,,arrowright,2152,spatial,,img/spatial/version2/3.png,,,97557,,16,image-keyboard-response,
227,Spatial,True,spatial,False,,,,males,Female,0.0-12.0-0.3,This study is trying to compare the spatial abilities between males and females,,arrowleft,1029,spatial,,img/spatial/version2/4.png,,,98618,,17,image-keyboard-response,
227,Spatial,True,spatial,False,,,,males,Female,0.0-12.0-0.4,This study is trying to compare the spatial abilities between males and females,,arrowright,434,spatial,,img/spatial/version2/5.png,,,99081,,18,image-keyboard-response,
227,Spatial,True,spatial,True,,,,males,Female,0.0-12.0-0.5,This study is trying to compare the spatial abilities between males and females,,arrowleft,2341,spatial,,img/spatial/version2/6.png,,,101454,,19,image-keyboard-response,
227,Spatial,True,spatial,True,,,,males,Female,0.0-12.0-0.6,This study is trying to compare the spatial abilities between males and females,,arrowright,1758,spatial,,img/spatial/version2/7.png,,,103245,,20,image-keyboard-response,
227,Spatial,True,spatial,False,,,,males,Female,0.0-12.0-0.7,This study is trying to compare the spatial abilities between males and females,,arrowleft,1363,spatial,,img/spatial/version2/8.png,,,104639,,21,image-keyboard-response,
227,Spatial,True,spatial,True,,,,males,Female,0.0-12.0-0.8,This study is trying to compare the spatial abilities between males and females,,arrowright,703,spatial,,img/spatial/version2/9.png,,,105372,,22,image-keyboard-response,
227,Spatial,True,spatial,True,,,,males,Female,0.0-12.0-0.9,This study is trying to compare the spatial abilities between males and females,,arrowleft,459,spatial,,img/spatial/version2/10.png,,,105863,,23,image-keyboard-response,
227,Spatial,True,spatial,False,,,,males,Female,0.0-12.0-0.10,This study is trying to compare the spatial abilities between males and females,,arrowleft,815,spatial,,img/spatial/version2/11.png,,,106712,,24,image-keyboard-response,
227,Spatial,True,spatial,False,,,,males,Female,0.0-12.0-0.11,This study is trying to compare the spatial abilities between males and females,,arrowright,808,spatial,,img/spatial/version2/12.png,,,107552,,25,image-keyboard-response,
227,Spatial,True,spatial,True,,,,males,Female,0.0-12.0-0.12,This study is trying to compare the spatial abilities between males and females,,arrowleft,654,spatial,,img/spatial/version2/13.png,,,108237,,26,image-keyboard-response,
227,Spatial,True,spatial,True,,,,males,Female,0.0-12.0-0.13,This study is trying to compare the spatial abilities between males and females,,arrowright,458,spatial,,img/spatial/version2/14.png,,,108727,,27,image-keyboard-response,
227,Spatial,True,spatial,True,,,,males,Female,0.0-12.0-0.14,This study is trying to compare the spatial abilities between males and females,,arrowright,3566,spatial,,img/spatial/version2/15.png,,,112313,,28,image-keyboard-response,
227,Spatial,True,spatial,True,,,,males,Female,0.0-12.0-0.15,This study is trying to compare the spatial abilities between males and females,,arrowleft,608,spatial,,img/spatial/version2/16.png,,,112943,,29,image-keyboard-response,
227,Spatial,True,spatial,True,,,,males,Female,0.0-12.0-0.16,This study is trying to compare the spatial abilities between males and females,,arrowleft,2372,spatial,,img/spatial/version2/17.png,,,115340,,30,image-keyboard-response,
227,Spatial,True,spatial,True,,,,males,Female,0.0-12.0-0.17,This study is trying to compare the spatial abilities between males and females,,arrowright,407,spatial,,img/spatial/version2/18.png,,,115772,,31,image-keyboard-response,
227,Spatial,True,spatial,True,,,,males,Female,0.0-12.0-0.18,This study is trying to compare the spatial abilities between males and females,,arrowright,688,spatial,,img/spatial/version2/19.png,,,116486,,32,image-keyboard-response,
227,Spatial,True,spatial,True,,,,males,Female,0.0-12.0-0.19,This study is trying to compare the spatial abilities between males and females,,arrowleft,747,spatial,,img/spatial/version2/20.png,,,117254,,33,image-keyboard-response,
227,Spatial,True,spatial,True,,,,males,Female,0.0-12.0-0.20,This study is trying to compare the spatial abilities between males and females,,arrowleft,321,spatial,,img/spatial/version2/21.png,,,117600,,34,image-keyboard-response,
227,Spatial,True,spatial,True,,,,males,Female,0.0-12.0-0.21,This study is trying to compare the spatial abilities between males and females,,arrowleft,755,spatial,,img/spatial/version2/22.png,,,118380,,35,image-keyboard-response,
227,Spatial,True,spatial,True,,,,males,Female,0.0-12.0-0.22,This study is trying to compare the spatial abilities between males and females,,arrowright,288,spatial,,img/spatial/version2/23.png,,,118694,,36,image-keyboard-response,
227,Spatial,True,spatial,True,,,,males,Female,0.0-12.0-0.23,This study is trying to compare the spatial abilities between males and females,,arrowright,294,spatial,,img/spatial/version2/24.png,,,119017,,37,image-keyboard-response,
227,Spatial,True,spatial,True,,,,males,Female,0.0-12.0-0.24,This study is trying to compare the spatial abilities between males and females,,arrowleft,1558,spatial,,img/spatial/version2/25.png,,,120602,,38,image-keyboard-response,
227,Spatial,True,spatial,True,,,,males,Female,0.0-12.0-0.25,This study is trying to compare the spatial abilities between males and females,,arrowleft,570,spatial,,img/spatial/version2/26.png,,,121198,,39,image-keyboard-response,
227,Spatial,True,spatial,False,,,,males,Female,0.0-12.0-0.26,This study is trying to compare the spatial abilities between males and females,,,,spatial,ended early,,,,121990,,40,image-keyboard-response,
227,Spatial,True,spatial,,,,,males,Female,0.0-13.0,This study is trying to compare the spatial abilities between males and females,,0,4402,spatial,,"<div style=""text-align: left;padding: 0 20vw;""><p style=""font-size:20px; color:black;""><p>You have finished the task - thanks for participating! A few more questions before you go. </p>",,,126392,,41,html-button-response,
227,Spatial,True,spatial,,,,,males,Female,0.0-14.0,This study is trying to compare the spatial abilities between males and females,,{'Hypothesis': 'This study is trying to compare the spatial abilities between males and females'},44653,spatial,,,,,171078,,42,survey-text,
227,Spatial,True,spatial,,,,,males,Female,0.0-15.0,This study is trying to compare the spatial abilities between males and females,[0],{'sex': 'Female'},3203,spatial,,,,,174284,,43,survey-multi-choice,
227,Spatial,True,spatial,,,,,males,Female,0.0-16.0,This study is trying to compare the spatial abilities between males and females,[0],{'q2': 'spatial ability'},7093,spatial,,,,,181387,,44,survey-multi-choice,
227,Spatial,True,spatial,,,,,males,Female,0.0-17.0,This study is trying to compare the spatial abilities between males and females,[0],{'q3': 'Males'},2681,spatial,,,,,184074,,45,survey-multi-choice,
227,Spatial,True,spatial,,,,,males,Female,0.0-18.0,This study is trying to compare the spatial abilities between males and females,,{'technicalDifficulties': ''},2949,spatial,,,,,187061,,46,survey-text,
227,Spatial,True,spatial,,,,,males,Female,0.0-19.0,This study is trying to compare the spatial abilities between males and females,,0,16375,spatial,,"<div style=""text-align: left;padding: 0 20vw;""><p style=""font-size:20px; color:black;""><p>Thanks for participating! In this study the task is framed either as a spatial task (which male participants typically perform better on) or a social task (which female participants typically perform better on). We are looking at the effect of gender bias in problem framing on performance. We ask that you please do not share this information with other potential participants. </p>",,,203437,,47,html-button-response,
275,Spatial,True,spatial,,,,,mens,Female,0.0-0.0,Fast direction skill,,,,social,,,True,,2249,,0,fullscreen,
275,Spatial,True,spatial,,[],[],[],mens,Female,0.0-1.0,Fast direction skill,,,,social,,,True,,42747,False,1,preload,
275,Spatial,True,spatial,,,,,mens,Female,0.0-2.0,Fast direction skill,,0,2707,social,,"<div style=""text-align: left;padding: 0 20vw;""><p style=""font-size:20px; color:black;""><p>By answering the following questions, you are participating in a study being performed by cognitive scientists in the Stanford Department of Psychology. </p><p>If you have questions about this research, please contact us at stanfordpsych251@gmail.com. </p><p>You must be at least 18 years old to participate. Your participation in this research is voluntary. You may decline to answer any or all of the following questions. You may decline further participation, at any time, without adverse consequences. </p><p>Your anonymity is assured; the researchers who have requested your participation will not receive any personal information about you.</p>",,,45454,,2,html-button-response,
275,Spatial,True,spatial,,,,,mens,Female,0.0-3.0,Fast direction skill,,0,1200,social,,"<div style=""text-align: left;padding: 0 20vw;""><p style=""font-size:20px; color:black;"">Our experiment is a task that tests your perspective taking ability.</p>",,,46655,,3,html-button-response,
275,Spatial,True,spatial,,,,,mens,Female,0.0-4.0,Fast direction skill,,0,1498,social,,"<div style=""text-align: left;padding: 0 20vw;""><p style=""font-size:20px; color:black;"">Perspective taking ability can be thought of as a measure of <strong>spatial ability</strong>.</p>",,,48154,,4,html-button-response,
275,Spatial,True,spatial,,,,,mens,Female,0.0-5.0,Fast direction skill,,0,848,social,,"<div style=""text-align: left;padding: 0 20vw;""><p style=""font-size:20px; color:black;""><p>Spatial ability is a cognitive ability that is defined as understanding the relations between objects in space and being able to mentally manipulate them and respond correctly.</p>",,,49002,,5,html-button-response,
275,Spatial,True,spatial,,,,,mens,Female,0.0-6.0,Fast direction skill,,0,2815,social,,"<div style=""text-align: left;padding: 0 20vw;""><p style=""font-size:20px; color:black;"">Previous studies have shown that <strong>males often score higher on measures of spatial ability</strong>.</p>",,,51818,,6,html-button-response,
275,Spatial,True,spatial,,,,,mens,Female,0.0-7.0,Fast direction skill,,"{'first': 'mens', 'second': 'social'}",33144,social,,,,,84964,,7,survey-html-form,
275,Spatial,True,spatial,,,,,mens,Female,0.0-8.0,Fast direction skill,,0,10722,social,,"<div style=""text-align: left;padding: 0 20vw;""><p>In this test, you will be shown a map of a city with a path drawn through it. </p>
      <p>Imagine yourself taking a walk through the path, following the direction of the dashed line.</p> 
      <p>At each turn that the path takes, which will be circled, 
      your task is to decide whether you would turn to your right or your left as you are walking. </p>
      <p>If it is a <strong> right turn</strong>, click on the <strong> right arrow key</strong>  on your keyboard,</p>
      <p>and if it is a <strong> left turn</strong>, click on the <strong> left arrow key</strong>  on your keyboard.</p>
      <p>You will first see three practice trials. </p>
      <p>Please do not turn your computer screen/head.</p>",,,95686,,8,html-button-response,
275,Spatial,True,spatial,,,,,mens,Female,0.0-9.0,Fast direction skill,,0,2416,social,,"<div style=""text-align: left;padding: 0 20vw;""><p style=""font-size:20px; color:black;"">You will first see three practice trials</p><p><p>If it is a <strong> right turn</strong>, click on the <strong> right arrow key</strong>  on your keyboard,</p><p>and if it is a <strong> left turn</strong>, click on the <strong> left arrow key</strong>  on your keyboard.</p> ",,,98104,,9,html-button-response,
275,Spatial,True,spatial,,,,,mens,Female,0.0-10.0-0.0,Fast direction skill,,arrowleft,3148,social,,img/spatial/version2/p1.png,,,101253,,10,image-keyboard-response,
275,Spatial,True,spatial,,,,,mens,Female,0.0-10.0-1.0,Fast direction skill,,arrowright,1397,social,,img/spatial/version2/p2.png,,,102651,,11,image-keyboard-response,
275,Spatial,True,spatial,,,,,mens,Female,0.0-10.0-2.0,Fast direction skill,,arrowright,1365,social,,img/spatial/version2/p3.png,,,104017,,12,image-keyboard-response,
275,Spatial,True,spatial,,,,,mens,Female,0.0-11.0,Fast direction skill,,0,2097,social,,"<div style=""text-align: left;padding: 0 20vw;""><p style=""font-size:20px; color:black;""> Now, you will have 30 seconds to complete as many of the 32 trials as you can.",,,106114,,13,html-button-response,
275,Spatial,True,spatial,True,,,,mens,Female,0.0-12.0-0.0,Fast direction skill,,arrowleft,1613,social,,img/spatial/version2/1.png,,,107729,,14,image-keyboard-response,
275,Spatial,True,spatial,True,,,,mens,Female,0.0-12.0-0.1,Fast direction skill,,arrowleft,961,social,,img/spatial/version2/2.png,,,108691,,15,image-keyboard-response,
275,Spatial,True,spatial,True,,,,mens,Female,0.0-12.0-0.2,Fast direction skill,,arrowright,1586,social,,img/spatial/version2/3.png,,,110278,,16,image-keyboard-response,
275,Spatial,True,spatial,True,,,,mens,Female,0.0-12.0-0.3,Fast direction skill,,arrowright,1284,social,,img/spatial/version2/4.png,,,111562,,17,image-keyboard-response,
275,Spatial,True,spatial,True,,,,mens,Female,0.0-12.0-0.4,Fast direction skill,,arrowleft,1183,social,,img/spatial/version2/5.png,,,112747,,18,image-keyboard-response,
275,Spatial,True,spatial,True,,,,mens,Female,0.0-12.0-0.5,Fast direction skill,,arrowleft,1957,social,,img/spatial/version2/6.png,,,114704,,19,image-keyboard-response,
275,Spatial,True,spatial,True,,,,mens,Female,0.0-12.0-0.6,Fast direction skill,,arrowright,738,social,,img/spatial/version2/7.png,,,115443,,20,image-keyboard-response,
275,Spatial,True,spatial,True,,,,mens,Female,0.0-12.0-0.7,Fast direction skill,,arrowright,1474,social,,img/spatial/version2/8.png,,,116918,,21,image-keyboard-response,
275,Spatial,True,spatial,True,,,,mens,Female,0.0-12.0-0.8,Fast direction skill,,arrowright,781,social,,img/spatial/version2/9.png,,,117700,,22,image-keyboard-response,
275,Spatial,True,spatial,True,,,,mens,Female,0.0-12.0-0.9,Fast direction skill,,arrowleft,1710,social,,img/spatial/version2/10.png,,,119411,,23,image-keyboard-response,
275,Spatial,True,spatial,True,,,,mens,Female,0.0-12.0-0.10,Fast direction skill,,arrowright,826,social,,img/spatial/version2/11.png,,,120238,,24,image-keyboard-response,
275,Spatial,True,spatial,True,,,,mens,Female,0.0-12.0-0.11,Fast direction skill,,arrowleft,827,social,,img/spatial/version2/12.png,,,121065,,25,image-keyboard-response,
275,Spatial,True,spatial,True,,,,mens,Female,0.0-12.0-0.12,Fast direction skill,,arrowleft,2224,social,,img/spatial/version2/13.png,,,123290,,26,image-keyboard-response,
275,Spatial,True,spatial,True,,,,mens,Female,0.0-12.0-0.13,Fast direction skill,,arrowright,883,social,,img/spatial/version2/14.png,,,124173,,27,image-keyboard-response,
275,Spatial,True,spatial,True,,,,mens,Female,0.0-12.0-0.14,Fast direction skill,,arrowright,2482,social,,img/spatial/version2/15.png,,,126656,,28,image-keyboard-response,
275,Spatial,True,spatial,True,,,,mens,Female,0.0-12.0-0.15,Fast direction skill,,arrowleft,1250,social,,img/spatial/version2/16.png,,,127907,,29,image-keyboard-response,
275,Spatial,True,spatial,True,,,,mens,Female,0.0-12.0-0.16,Fast direction skill,,arrowleft,1887,social,,img/spatial/version2/17.png,,,129795,,30,image-keyboard-response,
275,Spatial,True,spatial,True,,,,mens,Female,0.0-12.0-0.17,Fast direction skill,,arrowright,949,social,,img/spatial/version2/18.png,,,130745,,31,image-keyboard-response,
275,Spatial,True,spatial,True,,,,mens,Female,0.0-12.0-0.18,Fast direction skill,,arrowright,1285,social,,img/spatial/version2/19.png,,,132030,,32,image-keyboard-response,
275,Spatial,True,spatial,True,,,,mens,Female,0.0-12.0-0.19,Fast direction skill,,arrowleft,1127,social,,img/spatial/version2/20.png,,,133158,,33,image-keyboard-response,
275,Spatial,True,spatial,True,,,,mens,Female,0.0-12.0-0.20,Fast direction skill,,arrowleft,970,social,,img/spatial/version2/21.png,,,134130,,34,image-keyboard-response,
275,Spatial,True,spatial,True,,,,mens,Female,0.0-12.0-0.21,Fast direction skill,,arrowleft,983,social,,img/spatial/version2/22.png,,,135114,,35,image-keyboard-response,
275,Spatial,True,spatial,False,,,,mens,Female,0.0-12.0-0.22,Fast direction skill,,,,social,ended early,,,,136129,,36,image-keyboard-response,
275,Spatial,True,spatial,,,,,mens,Female,0.0-13.0,Fast direction skill,,0,1388,social,,"<div style=""text-align: left;padding: 0 20vw;""><p style=""font-size:20px; color:black;""><p>You have finished the task - thanks for participating! A few more questions before you go. </p>",,,137518,,37,html-button-response,
275,Spatial,True,spatial,,,,,mens,Female,0.0-14.0,Fast direction skill,,{'Hypothesis': 'Fast direction skill'},27361,social,,,,,164882,,38,survey-text,
275,Spatial,True,spatial,,,,,mens,Female,0.0-15.0,Fast direction skill,[0],{'sex': 'Female'},1801,social,,,,,166684,,39,survey-multi-choice,
275,Spatial,True,spatial,,,,,mens,Female,0.0-16.0,Fast direction skill,[0],{'q2': 'spatial ability'},6312,social,,,,,172998,,40,survey-multi-choice,
275,Spatial,True,spatial,,,,,mens,Female,0.0-17.0,Fast direction skill,[0],{'q3': 'Males'},2715,social,,,,,175716,,41,survey-multi-choice,
275,Spatial,True,spatial,,,,,mens,Female,0.0-18.0,Fast direction skill,,{'technicalDifficulties': ''},4449,social,,,,,180169,,42,survey-text,
275,Spatial,True,spatial,,,,,mens,Female,0.0-19.0,Fast direction skill,,0,616,social,,"<div style=""text-align: left;padding: 0 20vw;""><p style=""font-size:20px; color:black;""><p>Thanks for participating! In this study the task is framed either as a spatial task (which male participants typically perform better on) or a social task (which female participants typically perform better on). We are looking at the effect of gender bias in problem framing on performance. We ask that you please do not share this information with other potential participants. </p>",,,180785,,43,html-button-response,
149,Spatial,True,spatial,,,,,males,Female,0.0-0.0,basically to get a person's perspective on spatial directions.,,,,saptial,,,True,,6359,,0,fullscreen,
149,Spatial,True,spatial,,[],[],[],males,Female,0.0-1.0,basically to get a person's perspective on spatial directions.,,,,saptial,,,True,,18672,False,1,preload,
149,Spatial,True,spatial,,,,,males,Female,0.0-2.0,basically to get a person's perspective on spatial directions.,,0,6930,saptial,,"<div style=""text-align: left;padding: 0 20vw;""><p style=""font-size:20px; color:black;""><p>By answering the following questions, you are participating in a study being performed by cognitive scientists in the Stanford Department of Psychology. </p><p>If you have questions about this research, please contact us at stanfordpsych251@gmail.com. </p><p>You must be at least 18 years old to participate. Your participation in this research is voluntary. You may decline to answer any or all of the following questions. You may decline further participation, at any time, without adverse consequences. </p><p>Your anonymity is assured; the researchers who have requested your participation will not receive any personal information about you.</p>",,,25605,,2,html-button-response,
149,Spatial,True,spatial,,,,,males,Female,0.0-3.0,basically to get a person's perspective on spatial directions.,,0,2442,saptial,,"<div style=""text-align: left;padding: 0 20vw;""><p style=""font-size:20px; color:black;"">Our experiment is a task that tests your perspective taking ability.</p>",,,28051,,3,html-button-response,
149,Spatial,True,spatial,,,,,males,Female,0.0-4.0,basically to get a person's perspective on spatial directions.,,0,3489,saptial,,"<div style=""text-align: left;padding: 0 20vw;""><p style=""font-size:20px; color:black;"">Perspective taking ability can be thought of as a measure of <strong>spatial ability</strong>.</p>",,,31546,,4,html-button-response,
149,Spatial,True,spatial,,,,,males,Female,0.0-5.0,basically to get a person's perspective on spatial directions.,,0,9147,saptial,,"<div style=""text-align: left;padding: 0 20vw;""><p style=""font-size:20px; color:black;""><p>Spatial ability is a cognitive ability that is defined as understanding the relations between objects in space and being able to mentally manipulate them and respond correctly.</p>",,,40698,,5,html-button-response,
149,Spatial,True,spatial,,,,,males,Female,0.0-6.0,basically to get a person's perspective on spatial directions.,,0,3537,saptial,,"<div style=""text-align: left;padding: 0 20vw;""><p style=""font-size:20px; color:black;"">Previous studies have shown that <strong>males often score higher on measures of spatial ability</strong>.</p>",,,44239,,6,html-button-response,
149,Spatial,True,spatial,,,,,males,Female,0.0-7.0,basically to get a person's perspective on spatial directions.,,"{'first': 'males', 'second': 'saptial'}",13685,saptial,,,,,57933,,7,survey-html-form,
149,Spatial,True,spatial,,,,,males,Female,0.0-8.0,basically to get a person's perspective on spatial directions.,,0,27758,saptial,,"<div style=""text-align: left;padding: 0 20vw;""><p>In this test, you will be shown a map of a city with a path drawn through it. </p>
      <p>Imagine yourself taking a walk through the path, following the direction of the dashed line.</p> 
      <p>At each turn that the path takes, which will be circled, 
      your task is to decide whether you would turn to your right or your left as you are walking. </p>
      <p>If it is a <strong> right turn</strong>, click on the <strong> right arrow key</strong>  on your keyboard,</p>
      <p>and if it is a <strong> left turn</strong>, click on the <strong> left arrow key</strong>  on your keyboard.</p>
      <p>You will first see three practice trials. </p>
      <p>Please do not turn your computer screen/head.</p>",,,85695,,8,html-button-response,
149,Spatial,True,spatial,,,,,males,Female,0.0-9.0,basically to get a person's perspective on spatial directions.,,0,4756,saptial,,"<div style=""text-align: left;padding: 0 20vw;""><p style=""font-size:20px; color:black;"">You will first see three practice trials</p><p><p>If it is a <strong> right turn</strong>, click on the <strong> right arrow key</strong>  on your keyboard,</p><p>and if it is a <strong> left turn</strong>, click on the <strong> left arrow key</strong>  on your keyboard.</p> ",,,90455,,9,html-button-response,
149,Spatial,True,spatial,,,,,males,Female,0.0-10.0-0.0,basically to get a person's perspective on spatial directions.,,arrowleft,12789,saptial,,img/spatial/version2/p1.png,,,103265,,10,image-keyboard-response,
149,Spatial,True,spatial,,,,,males,Female,0.0-10.0-1.0,basically to get a person's perspective on spatial directions.,,arrowleft,4859,saptial,,img/spatial/version2/p2.png,,,108128,,11,image-keyboard-response,
149,Spatial,True,spatial,,,,,males,Female,0.0-10.0-2.0,basically to get a person's perspective on spatial directions.,,arrowright,1262,saptial,,img/spatial/version2/p3.png,,,109393,,12,image-keyboard-response,
149,Spatial,True,spatial,,,,,males,Female,0.0-11.0,basically to get a person's perspective on spatial directions.,,0,3113,saptial,,"<div style=""text-align: left;padding: 0 20vw;""><p style=""font-size:20px; color:black;""> Now, you will have 30 seconds to complete as many of the 32 trials as you can.",,,112510,,13,html-button-response,
149,Spatial,True,spatial,True,,,,males,Female,0.0-12.0-0.0,basically to get a person's perspective on spatial directions.,,arrowleft,2766,saptial,,img/spatial/version2/1.png,,,115285,,14,image-keyboard-response,
149,Spatial,True,spatial,False,,,,males,Female,0.0-12.0-0.1,basically to get a person's perspective on spatial directions.,,arrowright,1953,saptial,,img/spatial/version2/2.png,,,117244,,15,image-keyboard-response,
149,Spatial,True,spatial,True,,,,males,Female,0.0-12.0-0.2,basically to get a person's perspective on spatial directions.,,arrowright,3313,saptial,,img/spatial/version2/3.png,,,120561,,16,image-keyboard-response,
149,Spatial,True,spatial,False,,,,males,Female,0.0-12.0-0.3,basically to get a person's perspective on spatial directions.,,arrowleft,1536,saptial,,img/spatial/version2/4.png,,,122101,,17,image-keyboard-response,
149,Spatial,True,spatial,False,,,,males,Female,0.0-12.0-0.4,basically to get a person's perspective on spatial directions.,,arrowright,1508,saptial,,img/spatial/version2/5.png,,,123613,,18,image-keyboard-response,
149,Spatial,True,spatial,False,,,,males,Female,0.0-12.0-0.5,basically to get a person's perspective on spatial directions.,,arrowright,4750,saptial,,img/spatial/version2/6.png,,,128367,,19,image-keyboard-response,
149,Spatial,True,spatial,False,,,,males,Female,0.0-12.0-0.6,basically to get a person's perspective on spatial directions.,,arrowleft,2777,saptial,,img/spatial/version2/7.png,,,131149,,20,image-keyboard-response,
149,Spatial,True,spatial,False,,,,males,Female,0.0-12.0-0.7,basically to get a person's perspective on spatial directions.,,arrowleft,5246,saptial,,img/spatial/version2/8.png,,,136399,,21,image-keyboard-response,
149,Spatial,True,spatial,True,,,,males,Female,0.0-12.0-0.8,basically to get a person's perspective on spatial directions.,,arrowright,2542,saptial,,img/spatial/version2/9.png,,,138944,,22,image-keyboard-response,
149,Spatial,True,spatial,False,,,,males,Female,0.0-12.0-0.9,basically to get a person's perspective on spatial directions.,,,,saptial,ended early,,,,142529,,23,image-keyboard-response,
149,Spatial,True,spatial,,,,,males,Female,0.0-13.0,basically to get a person's perspective on spatial directions.,,0,2856,saptial,,"<div style=""text-align: left;padding: 0 20vw;""><p style=""font-size:20px; color:black;""><p>You have finished the task - thanks for participating! A few more questions before you go. </p>",,,145388,,24,html-button-response,
149,Spatial,True,spatial,,,,,males,Female,0.0-14.0,basically to get a person's perspective on spatial directions.,,"{'Hypothesis': ""basically to get a person's perspective on spatial directions.""}",108350,saptial,,,,,253775,,25,survey-text,
149,Spatial,True,spatial,,,,,males,Female,0.0-15.0,basically to get a person's perspective on spatial directions.,[0],{'sex': 'Female'},3175,saptial,,,,,256957,,26,survey-multi-choice,
149,Spatial,True,spatial,,,,,males,Female,0.0-16.0,basically to get a person's perspective on spatial directions.,[0],{'q2': 'spatial ability'},8226,saptial,,,,,265201,,27,survey-multi-choice,
149,Spatial,True,spatial,,,,,males,Female,0.0-17.0,basically to get a person's perspective on spatial directions.,[0],{'q3': 'Males'},3868,saptial,,,,,269086,,28,survey-multi-choice,
149,Spatial,True,spatial,,,,,males,Female,0.0-18.0,basically to get a person's perspective on spatial directions.,,{'technicalDifficulties': ''},4014,saptial,,,,,273134,,29,survey-text,
149,Spatial,True,spatial,,,,,males,Female,0.0-19.0,basically to get a person's perspective on spatial directions.,,0,10851,saptial,,"<div style=""text-align: left;padding: 0 20vw;""><p style=""font-size:20px; color:black;""><p>Thanks for participating! In this study the task is framed either as a spatial task (which male participants typically perform better on) or a social task (which female participants typically perform better on). We are looking at the effect of gender bias in problem framing on performance. We ask that you please do not share this information with other potential participants. </p>",,,283990,,30,html-button-response,
125,Spatial,True,spatial,,,,,Men,Female,0.0-0.0,no,,,,spacial,,,True,no,6426,,0,fullscreen,
125,Spatial,True,spatial,,[],[],[],Men,Female,0.0-1.0,no,,,,spacial,,,True,no,6764,False,1,preload,
125,Spatial,True,spatial,,,,,Men,Female,0.0-2.0,no,,0,2116,spacial,,"<div style=""text-align: left;padding: 0 20vw;""><p style=""font-size:20px; color:black;""><p>By answering the following questions, you are participating in a study being performed by cognitive scientists in the Stanford Department of Psychology. </p><p>If you have questions about this research, please contact us at stanfordpsych251@gmail.com. </p><p>You must be at least 18 years old to participate. Your participation in this research is voluntary. You may decline to answer any or all of the following questions. You may decline further participation, at any time, without adverse consequences. </p><p>Your anonymity is assured; the researchers who have requested your participation will not receive any personal information about you.</p>",,no,8882,,2,html-button-response,
125,Spatial,True,spatial,,,,,Men,Female,0.0-3.0,no,,0,15082,spacial,,"<div style=""text-align: left;padding: 0 20vw;""><p style=""font-size:20px; color:black;"">Our experiment is a task that tests your perspective taking ability.</p>",,no,23967,,3,html-button-response,
125,Spatial,True,spatial,,,,,Men,Female,0.0-4.0,no,,0,5418,spacial,,"<div style=""text-align: left;padding: 0 20vw;""><p style=""font-size:20px; color:black;"">Perspective taking ability can be thought of as a measure of <strong>spatial ability</strong>.</p>",,no,29386,,4,html-button-response,
125,Spatial,True,spatial,,,,,Men,Female,0.0-5.0,no,,0,8855,spacial,,"<div style=""text-align: left;padding: 0 20vw;""><p style=""font-size:20px; color:black;""><p>Spatial ability is a cognitive ability that is defined as understanding the relations between objects in space and being able to mentally manipulate them and respond correctly.</p>",,no,38243,,5,html-button-response,
125,Spatial,True,spatial,,,,,Men,Female,0.0-6.0,no,,0,5701,spacial,,"<div style=""text-align: left;padding: 0 20vw;""><p style=""font-size:20px; color:black;"">Previous studies have shown that <strong>males often score higher on measures of spatial ability</strong>.</p>",,no,43946,,6,html-button-response,
125,Spatial,True,spatial,,,,,Men,Female,0.0-7.0,no,,"{'first': 'Men', 'second': 'spacial'}",24291,spacial,,,,no,68238,,7,survey-html-form,
125,Spatial,True,spatial,,,,,Men,Female,0.0-8.0,no,,0,57498,spacial,,"<div style=""text-align: left;padding: 0 20vw;""><p>In this test, you will be shown a map of a city with a path drawn through it. </p>
      <p>Imagine yourself taking a walk through the path, following the direction of the dashed line.</p> 
      <p>At each turn that the path takes, which will be circled, 
      your task is to decide whether you would turn to your right or your left as you are walking. </p>
      <p>If it is a <strong> right turn</strong>, click on the <strong> right arrow key</strong>  on your keyboard,</p>
      <p>and if it is a <strong> left turn</strong>, click on the <strong> left arrow key</strong>  on your keyboard.</p>
      <p>You will first see three practice trials. </p>
      <p>Please do not turn your computer screen/head.</p>",,no,125738,,8,html-button-response,
125,Spatial,True,spatial,,,,,Men,Female,0.0-9.0,no,,0,5983,spacial,,"<div style=""text-align: left;padding: 0 20vw;""><p style=""font-size:20px; color:black;"">You will first see three practice trials</p><p><p>If it is a <strong> right turn</strong>, click on the <strong> right arrow key</strong>  on your keyboard,</p><p>and if it is a <strong> left turn</strong>, click on the <strong> left arrow key</strong>  on your keyboard.</p> ",,no,131724,,9,html-button-response,
125,Spatial,True,spatial,,,,,Men,Female,0.0-10.0-0.0,no,,arrowleft,5903,spacial,,img/spatial/version2/p1.png,,no,137632,,10,image-keyboard-response,
125,Spatial,True,spatial,,,,,Men,Female,0.0-10.0-1.0,no,,arrowright,4115,spacial,,img/spatial/version2/p2.png,,no,141749,,11,image-keyboard-response,
125,Spatial,True,spatial,,,,,Men,Female,0.0-10.0-2.0,no,,arrowright,1980,spacial,,img/spatial/version2/p3.png,,no,143730,,12,image-keyboard-response,
125,Spatial,True,spatial,,,,,Men,Female,0.0-11.0,no,,0,8325,spacial,,"<div style=""text-align: left;padding: 0 20vw;""><p style=""font-size:20px; color:black;""> Now, you will have 30 seconds to complete as many of the 32 trials as you can.",,no,152057,,13,html-button-response,
125,Spatial,True,spatial,True,,,,Men,Female,0.0-12.0-0.0,no,,arrowleft,4380,spacial,,img/spatial/version2/1.png,,no,156438,,14,image-keyboard-response,
125,Spatial,True,spatial,True,,,,Men,Female,0.0-12.0-0.1,no,,arrowleft,11154,spacial,,img/spatial/version2/2.png,,no,167596,,15,image-keyboard-response,
125,Spatial,True,spatial,True,,,,Men,Female,0.0-12.0-0.2,no,,arrowright,1257,spacial,,img/spatial/version2/3.png,,no,168854,,16,image-keyboard-response,
125,Spatial,True,spatial,True,,,,Men,Female,0.0-12.0-0.3,no,,arrowright,2606,spacial,,img/spatial/version2/4.png,,no,171462,,17,image-keyboard-response,
125,Spatial,True,spatial,True,,,,Men,Female,0.0-12.0-0.4,no,,arrowleft,3016,spacial,,img/spatial/version2/5.png,,no,174480,,18,image-keyboard-response,
125,Spatial,True,spatial,False,,,,Men,Female,0.0-12.0-0.5,no,,,,spacial,ended early,,,no,182070,,19,image-keyboard-response,
125,Spatial,True,spatial,,,,,Men,Female,0.0-13.0,no,,0,3519,spacial,,"<div style=""text-align: left;padding: 0 20vw;""><p style=""font-size:20px; color:black;""><p>You have finished the task - thanks for participating! A few more questions before you go. </p>",,no,185590,,20,html-button-response,
125,Spatial,True,spatial,,,,,Men,Female,0.0-14.0,no,,{'Hypothesis': 'no'},12363,spacial,,,,no,197959,,21,survey-text,
125,Spatial,True,spatial,,,,,Men,Female,0.0-15.0,no,[0],{'sex': 'Female'},4443,spacial,,,,no,202408,,22,survey-multi-choice,
125,Spatial,True,spatial,,,,,Men,Female,0.0-16.0,no,[0],{'q2': 'spatial ability'},7126,spacial,,,,no,209538,,23,survey-multi-choice,
125,Spatial,True,spatial,,,,,Men,Female,0.0-17.0,no,[0],{'q3': 'Males'},5267,spacial,,,,no,214808,,24,survey-multi-choice,
125,Spatial,True,spatial,,,,,Men,Female,0.0-18.0,no,,{'technicalDifficulties': 'no'},4721,spacial,,,,no,219535,,25,survey-text,
125,Spatial,True,spatial,,,,,Men,Female,0.0-19.0,no,,0,21538,spacial,,"<div style=""text-align: left;padding: 0 20vw;""><p style=""font-size:20px; color:black;""><p>Thanks for participating! In this study the task is framed either as a spatial task (which male participants typically perform better on) or a social task (which female participants typically perform better on). We are looking at the effect of gender bias in problem framing on performance. We ask that you please do not share this information with other potential participants. </p>",,no,241075,,26,html-button-response,
178,Spatial,True,spatial,,,,,males,Female,0.0-0.0,hahah not really,,,,spatial,,,True,no,2132,,0,fullscreen,
178,Spatial,True,spatial,,[],[],[],males,Female,0.0-1.0,hahah not really,,,,spatial,,,True,no,3020,False,1,preload,
178,Spatial,True,spatial,,,,,males,Female,0.0-2.0,hahah not really,,0,10277,spatial,,"<div style=""text-align: left;padding: 0 20vw;""><p style=""font-size:20px; color:black;""><p>By answering the following questions, you are participating in a study being performed by cognitive scientists in the Stanford Department of Psychology. </p><p>If you have questions about this research, please contact us at stanfordpsych251@gmail.com. </p><p>You must be at least 18 years old to participate. Your participation in this research is voluntary. You may decline to answer any or all of the following questions. You may decline further participation, at any time, without adverse consequences. </p><p>Your anonymity is assured; the researchers who have requested your participation will not receive any personal information about you.</p>",,no,13299,,2,html-button-response,
178,Spatial,True,spatial,,,,,males,Female,0.0-3.0,hahah not really,,0,4023,spatial,,"<div style=""text-align: left;padding: 0 20vw;""><p style=""font-size:20px; color:black;"">Our experiment is a task that tests your perspective taking ability.</p>",,no,17324,,3,html-button-response,
178,Spatial,True,spatial,,,,,males,Female,0.0-4.0,hahah not really,,0,3851,spatial,,"<div style=""text-align: left;padding: 0 20vw;""><p style=""font-size:20px; color:black;"">Perspective taking ability can be thought of as a measure of <strong>spatial ability</strong>.</p>",,no,21178,,4,html-button-response,
178,Spatial,True,spatial,,,,,males,Female,0.0-5.0,hahah not really,,0,4262,spatial,,"<div style=""text-align: left;padding: 0 20vw;""><p style=""font-size:20px; color:black;""><p>Spatial ability is a cognitive ability that is defined as understanding the relations between objects in space and being able to mentally manipulate them and respond correctly.</p>",,no,25442,,5,html-button-response,
178,Spatial,True,spatial,,,,,males,Female,0.0-6.0,hahah not really,,0,3476,spatial,,"<div style=""text-align: left;padding: 0 20vw;""><p style=""font-size:20px; color:black;"">Previous studies have shown that <strong>males often score higher on measures of spatial ability</strong>.</p>",,no,28920,,6,html-button-response,
178,Spatial,True,spatial,,,,,males,Female,0.0-7.0,hahah not really,,"{'first': 'males', 'second': 'spatial'}",7756,spatial,,,,no,36678,,7,survey-html-form,
178,Spatial,True,spatial,,,,,males,Female,0.0-8.0,hahah not really,,0,19630,spatial,,"<div style=""text-align: left;padding: 0 20vw;""><p>In this test, you will be shown a map of a city with a path drawn through it. </p>
      <p>Imagine yourself taking a walk through the path, following the direction of the dashed line.</p> 
      <p>At each turn that the path takes, which will be circled, 
      your task is to decide whether you would turn to your right or your left as you are walking. </p>
      <p>If it is a <strong> right turn</strong>, click on the <strong> right arrow key</strong>  on your keyboard,</p>
      <p>and if it is a <strong> left turn</strong>, click on the <strong> left arrow key</strong>  on your keyboard.</p>
      <p>You will first see three practice trials. </p>
      <p>Please do not turn your computer screen/head.</p>",,no,56310,,8,html-button-response,
178,Spatial,True,spatial,,,,,males,Female,0.0-9.0,hahah not really,,0,6175,spatial,,"<div style=""text-align: left;padding: 0 20vw;""><p style=""font-size:20px; color:black;"">You will first see three practice trials</p><p><p>If it is a <strong> right turn</strong>, click on the <strong> right arrow key</strong>  on your keyboard,</p><p>and if it is a <strong> left turn</strong>, click on the <strong> left arrow key</strong>  on your keyboard.</p> ",,no,62487,,9,html-button-response,
178,Spatial,True,spatial,,,,,males,Female,0.0-10.0-0.0,hahah not really,,arrowright,7789,spatial,,img/spatial/version2/p1.png,,no,70296,,10,image-keyboard-response,
178,Spatial,True,spatial,,,,,males,Female,0.0-10.0-1.0,hahah not really,,arrowright,7202,spatial,,img/spatial/version2/p2.png,,no,77515,,11,image-keyboard-response,
178,Spatial,True,spatial,,,,,males,Female,0.0-10.0-2.0,hahah not really,,arrowright,1037,spatial,,img/spatial/version2/p3.png,,no,78572,,12,image-keyboard-response,
178,Spatial,True,spatial,,,,,males,Female,0.0-11.0,hahah not really,,0,3718,spatial,,"<div style=""text-align: left;padding: 0 20vw;""><p style=""font-size:20px; color:black;""> Now, you will have 30 seconds to complete as many of the 32 trials as you can.",,no,82292,,13,html-button-response,
178,Spatial,True,spatial,True,,,,males,Female,0.0-12.0-0.0,hahah not really,,arrowleft,1674,spatial,,img/spatial/version2/1.png,,no,83990,,14,image-keyboard-response,
178,Spatial,True,spatial,True,,,,males,Female,0.0-12.0-0.1,hahah not really,,arrowleft,2130,spatial,,img/spatial/version2/2.png,,no,86146,,15,image-keyboard-response,
178,Spatial,True,spatial,True,,,,males,Female,0.0-12.0-0.2,hahah not really,,arrowright,1743,spatial,,img/spatial/version2/3.png,,no,87913,,16,image-keyboard-response,
178,Spatial,True,spatial,True,,,,males,Female,0.0-12.0-0.3,hahah not really,,arrowright,1445,spatial,,img/spatial/version2/4.png,,no,89382,,17,image-keyboard-response,
178,Spatial,True,spatial,True,,,,males,Female,0.0-12.0-0.4,hahah not really,,arrowleft,2043,spatial,,img/spatial/version2/5.png,,no,91450,,18,image-keyboard-response,
178,Spatial,True,spatial,True,,,,males,Female,0.0-12.0-0.5,hahah not really,,arrowleft,4738,spatial,,img/spatial/version2/6.png,,no,96213,,19,image-keyboard-response,
178,Spatial,True,spatial,True,,,,males,Female,0.0-12.0-0.6,hahah not really,,arrowright,2150,spatial,,img/spatial/version2/7.png,,no,98389,,20,image-keyboard-response,
178,Spatial,True,spatial,True,,,,males,Female,0.0-12.0-0.7,hahah not really,,arrowright,1498,spatial,,img/spatial/version2/8.png,,no,99912,,21,image-keyboard-response,
178,Spatial,True,spatial,True,,,,males,Female,0.0-12.0-0.8,hahah not really,,arrowright,1143,spatial,,img/spatial/version2/9.png,,no,101082,,22,image-keyboard-response,
178,Spatial,True,spatial,False,,,,males,Female,0.0-12.0-0.9,hahah not really,,arrowright,1546,spatial,,img/spatial/version2/10.png,,no,102654,,23,image-keyboard-response,
178,Spatial,True,spatial,True,,,,males,Female,0.0-12.0-0.10,hahah not really,,arrowright,2341,spatial,,img/spatial/version2/11.png,,no,105015,,24,image-keyboard-response,
178,Spatial,True,spatial,False,,,,males,Female,0.0-12.0-0.11,hahah not really,,arrowright,1454,spatial,,img/spatial/version2/12.png,,no,106495,,25,image-keyboard-response,
178,Spatial,True,spatial,True,,,,males,Female,0.0-12.0-0.12,hahah not really,,arrowleft,1959,spatial,,img/spatial/version2/13.png,,no,108479,,26,image-keyboard-response,
178,Spatial,True,spatial,False,,,,males,Female,0.0-12.0-0.13,hahah not really,,arrowleft,1048,spatial,,img/spatial/version2/14.png,,no,109549,,27,image-keyboard-response,
178,Spatial,True,spatial,True,,,,males,Female,0.0-12.0-0.14,hahah not really,,arrowright,2095,spatial,,img/spatial/version2/15.png,,no,111663,,28,image-keyboard-response,
178,Spatial,True,spatial,False,,,,males,Female,0.0-12.0-0.15,hahah not really,,,,spatial,ended early,,,no,112319,,29,image-keyboard-response,
178,Spatial,True,spatial,,,,,males,Female,0.0-13.0,hahah not really,,0,3060,spatial,,"<div style=""text-align: left;padding: 0 20vw;""><p style=""font-size:20px; color:black;""><p>You have finished the task - thanks for participating! A few more questions before you go. </p>",,no,115381,,30,html-button-response,
178,Spatial,True,spatial,,,,,males,Female,0.0-14.0,hahah not really,,{'Hypothesis': 'hahah not really'},8512,spatial,,,,no,123896,,31,survey-text,
178,Spatial,True,spatial,,,,,males,Female,0.0-15.0,hahah not really,[0],{'sex': 'Female'},5528,spatial,,,,no,129426,,32,survey-multi-choice,
178,Spatial,True,spatial,,,,,males,Female,0.0-16.0,hahah not really,[0],{'q2': 'spatial ability'},4192,spatial,,,,no,133633,,33,survey-multi-choice,
178,Spatial,True,spatial,,,,,males,Female,0.0-17.0,hahah not really,[0],{'q3': 'Males'},3682,spatial,,,,no,137330,,34,survey-multi-choice,
178,Spatial,True,spatial,,,,,males,Female,0.0-18.0,hahah not really,,{'technicalDifficulties': 'no'},3524,spatial,,,,no,140866,,35,survey-text,
178,Spatial,True,spatial,,,,,males,Female,0.0-19.0,hahah not really,,0,23787,spatial,,"<div style=""text-align: left;padding: 0 20vw;""><p style=""font-size:20px; color:black;""><p>Thanks for participating! In this study the task is framed either as a spatial task (which male participants typically perform better on) or a social task (which female participants typically perform better on). We are looking at the effect of gender bias in problem framing on performance. We ask that you please do not share this information with other potential participants. </p>",,no,164654,,36,html-button-response,
295,Spatial,True,spatial,,,,,mens,Female,0.0-0.0,Compares men and eomen according to their perception of perspective?,,,,spatial,,,True,,9649,,0,fullscreen,
295,Spatial,True,spatial,,[],[],[],mens,Female,0.0-1.0,Compares men and eomen according to their perception of perspective?,,,,spatial,,,True,,11061,False,1,preload,
295,Spatial,True,spatial,,,,,mens,Female,0.0-2.0,Compares men and eomen according to their perception of perspective?,,0,16785,spatial,,"<div style=""text-align: left;padding: 0 20vw;""><p style=""font-size:20px; color:black;""><p>By answering the following questions, you are participating in a study being performed by cognitive scientists in the Stanford Department of Psychology. </p><p>If you have questions about this research, please contact us at stanfordpsych251@gmail.com. </p><p>You must be at least 18 years old to participate. Your participation in this research is voluntary. You may decline to answer any or all of the following questions. You may decline further participation, at any time, without adverse consequences. </p><p>Your anonymity is assured; the researchers who have requested your participation will not receive any personal information about you.</p>",,,27848,,2,html-button-response,
295,Spatial,True,spatial,,,,,mens,Female,0.0-3.0,Compares men and eomen according to their perception of perspective?,,0,4771,spatial,,"<div style=""text-align: left;padding: 0 20vw;""><p style=""font-size:20px; color:black;"">Our experiment is a task that tests your perspective taking ability.</p>",,,32619,,3,html-button-response,
295,Spatial,True,spatial,,,,,mens,Female,0.0-4.0,Compares men and eomen according to their perception of perspective?,,0,43224,spatial,,"<div style=""text-align: left;padding: 0 20vw;""><p style=""font-size:20px; color:black;"">Perspective taking ability can be thought of as a measure of <strong>spatial ability</strong>.</p>",,,75846,,4,html-button-response,
295,Spatial,True,spatial,,,,,mens,Female,0.0-5.0,Compares men and eomen according to their perception of perspective?,,0,5827,spatial,,"<div style=""text-align: left;padding: 0 20vw;""><p style=""font-size:20px; color:black;""><p>Spatial ability is a cognitive ability that is defined as understanding the relations between objects in space and being able to mentally manipulate them and respond correctly.</p>",,,81674,,5,html-button-response,
295,Spatial,True,spatial,,,,,mens,Female,0.0-6.0,Compares men and eomen according to their perception of perspective?,,0,16123,spatial,,"<div style=""text-align: left;padding: 0 20vw;""><p style=""font-size:20px; color:black;"">Previous studies have shown that <strong>males often score higher on measures of spatial ability</strong>.</p>",,,97798,,6,html-button-response,
295,Spatial,True,spatial,,,,,mens,Female,0.0-7.0,Compares men and eomen according to their perception of perspective?,,"{'first': 'mens', 'second': 'spatial'}",28456,spatial,,,,,126255,,7,survey-html-form,
295,Spatial,True,spatial,,,,,mens,Female,0.0-8.0,Compares men and eomen according to their perception of perspective?,,0,55895,spatial,,"<div style=""text-align: left;padding: 0 20vw;""><p>In this test, you will be shown a map of a city with a path drawn through it. </p>
      <p>Imagine yourself taking a walk through the path, following the direction of the dashed line.</p> 
      <p>At each turn that the path takes, which will be circled, 
      your task is to decide whether you would turn to your right or your left as you are walking. </p>
      <p>If it is a <strong> right turn</strong>, click on the <strong> right arrow key</strong>  on your keyboard,</p>
      <p>and if it is a <strong> left turn</strong>, click on the <strong> left arrow key</strong>  on your keyboard.</p>
      <p>You will first see three practice trials. </p>
      <p>Please do not turn your computer screen/head.</p>",,,182150,,8,html-button-response,
295,Spatial,True,spatial,,,,,mens,Female,0.0-9.0,Compares men and eomen according to their perception of perspective?,,0,5479,spatial,,"<div style=""text-align: left;padding: 0 20vw;""><p style=""font-size:20px; color:black;"">You will first see three practice trials</p><p><p>If it is a <strong> right turn</strong>, click on the <strong> right arrow key</strong>  on your keyboard,</p><p>and if it is a <strong> left turn</strong>, click on the <strong> left arrow key</strong>  on your keyboard.</p> ",,,187630,,9,html-button-response,
295,Spatial,True,spatial,,,,,mens,Female,0.0-10.0-0.0,Compares men and eomen according to their perception of perspective?,,arrowleft,6447,spatial,,img/spatial/version2/p1.png,,,194080,,10,image-keyboard-response,
295,Spatial,True,spatial,,,,,mens,Female,0.0-10.0-1.0,Compares men and eomen according to their perception of perspective?,,arrowleft,1037,spatial,,img/spatial/version2/p2.png,,,195117,,11,image-keyboard-response,
295,Spatial,True,spatial,,,,,mens,Female,0.0-10.0-2.0,Compares men and eomen according to their perception of perspective?,,arrowright,2868,spatial,,img/spatial/version2/p3.png,,,197986,,12,image-keyboard-response,
295,Spatial,True,spatial,,,,,mens,Female,0.0-11.0,Compares men and eomen according to their perception of perspective?,,0,5044,spatial,,"<div style=""text-align: left;padding: 0 20vw;""><p style=""font-size:20px; color:black;""> Now, you will have 30 seconds to complete as many of the 32 trials as you can.",,,203030,,13,html-button-response,
295,Spatial,True,spatial,False,,,,mens,Female,0.0-12.0-0.0,Compares men and eomen according to their perception of perspective?,,arrowright,2062,spatial,,img/spatial/version2/1.png,,,205094,,14,image-keyboard-response,
295,Spatial,True,spatial,False,,,,mens,Female,0.0-12.0-0.1,Compares men and eomen according to their perception of perspective?,,arrowright,1007,spatial,,img/spatial/version2/2.png,,,206101,,15,image-keyboard-response,
295,Spatial,True,spatial,True,,,,mens,Female,0.0-12.0-0.2,Compares men and eomen according to their perception of perspective?,,arrowright,1193,spatial,,img/spatial/version2/3.png,,,207295,,16,image-keyboard-response,
295,Spatial,True,spatial,False,,,,mens,Female,0.0-12.0-0.3,Compares men and eomen according to their perception of perspective?,,arrowleft,702,spatial,,img/spatial/version2/4.png,,,207998,,17,image-keyboard-response,
295,Spatial,True,spatial,False,,,,mens,Female,0.0-12.0-0.4,Compares men and eomen according to their perception of perspective?,,arrowright,937,spatial,,img/spatial/version2/5.png,,,208936,,18,image-keyboard-response,
295,Spatial,True,spatial,False,,,,mens,Female,0.0-12.0-0.5,Compares men and eomen according to their perception of perspective?,,arrowright,3709,spatial,,img/spatial/version2/6.png,,,212646,,19,image-keyboard-response,
295,Spatial,True,spatial,True,,,,mens,Female,0.0-12.0-0.6,Compares men and eomen according to their perception of perspective?,,arrowright,1040,spatial,,img/spatial/version2/7.png,,,213687,,20,image-keyboard-response,
295,Spatial,True,spatial,False,,,,mens,Female,0.0-12.0-0.7,Compares men and eomen according to their perception of perspective?,,arrowleft,1105,spatial,,img/spatial/version2/8.png,,,214793,,21,image-keyboard-response,
295,Spatial,True,spatial,True,,,,mens,Female,0.0-12.0-0.8,Compares men and eomen according to their perception of perspective?,,arrowright,1224,spatial,,img/spatial/version2/9.png,,,216018,,22,image-keyboard-response,
295,Spatial,True,spatial,True,,,,mens,Female,0.0-12.0-0.9,Compares men and eomen according to their perception of perspective?,,arrowleft,837,spatial,,img/spatial/version2/10.png,,,216855,,23,image-keyboard-response,
295,Spatial,True,spatial,False,,,,mens,Female,0.0-12.0-0.10,Compares men and eomen according to their perception of perspective?,,arrowleft,834,spatial,,img/spatial/version2/11.png,,,217690,,24,image-keyboard-response,
295,Spatial,True,spatial,False,,,,mens,Female,0.0-12.0-0.11,Compares men and eomen according to their perception of perspective?,,arrowright,826,spatial,,img/spatial/version2/12.png,,,218517,,25,image-keyboard-response,
295,Spatial,True,spatial,False,,,,mens,Female,0.0-12.0-0.12,Compares men and eomen according to their perception of perspective?,,arrowright,982,spatial,,img/spatial/version2/13.png,,,219500,,26,image-keyboard-response,
295,Spatial,True,spatial,True,,,,mens,Female,0.0-12.0-0.13,Compares men and eomen according to their perception of perspective?,,arrowright,701,spatial,,img/spatial/version2/14.png,,,220202,,27,image-keyboard-response,
295,Spatial,True,spatial,False,,,,mens,Female,0.0-12.0-0.14,Compares men and eomen according to their perception of perspective?,,arrowleft,1280,spatial,,img/spatial/version2/15.png,,,221483,,28,image-keyboard-response,
295,Spatial,True,spatial,False,,,,mens,Female,0.0-12.0-0.15,Compares men and eomen according to their perception of perspective?,,arrowright,550,spatial,,img/spatial/version2/16.png,,,222034,,29,image-keyboard-response,
295,Spatial,True,spatial,False,,,,mens,Female,0.0-12.0-0.16,Compares men and eomen according to their perception of perspective?,,arrowright,2125,spatial,,img/spatial/version2/17.png,,,224160,,30,image-keyboard-response,
295,Spatial,True,spatial,True,,,,mens,Female,0.0-12.0-0.17,Compares men and eomen according to their perception of perspective?,,arrowright,476,spatial,,img/spatial/version2/18.png,,,224636,,31,image-keyboard-response,
295,Spatial,True,spatial,True,,,,mens,Female,0.0-12.0-0.18,Compares men and eomen according to their perception of perspective?,,arrowright,656,spatial,,img/spatial/version2/19.png,,,225293,,32,image-keyboard-response,
295,Spatial,True,spatial,False,,,,mens,Female,0.0-12.0-0.19,Compares men and eomen according to their perception of perspective?,,arrowright,426,spatial,,img/spatial/version2/20.png,,,225721,,33,image-keyboard-response,
295,Spatial,True,spatial,False,,,,mens,Female,0.0-12.0-0.20,Compares men and eomen according to their perception of perspective?,,arrowright,924,spatial,,img/spatial/version2/21.png,,,226645,,34,image-keyboard-response,
295,Spatial,True,spatial,True,,,,mens,Female,0.0-12.0-0.21,Compares men and eomen according to their perception of perspective?,,arrowleft,833,spatial,,img/spatial/version2/22.png,,,227479,,35,image-keyboard-response,
295,Spatial,True,spatial,True,,,,mens,Female,0.0-12.0-0.22,Compares men and eomen according to their perception of perspective?,,arrowright,824,spatial,,img/spatial/version2/23.png,,,228303,,36,image-keyboard-response,
295,Spatial,True,spatial,True,,,,mens,Female,0.0-12.0-0.23,Compares men and eomen according to their perception of perspective?,,arrowright,575,spatial,,img/spatial/version2/24.png,,,228879,,37,image-keyboard-response,
295,Spatial,True,spatial,False,,,,mens,Female,0.0-12.0-0.24,Compares men and eomen according to their perception of perspective?,,arrowright,1115,spatial,,img/spatial/version2/25.png,,,229994,,38,image-keyboard-response,
295,Spatial,True,spatial,True,,,,mens,Female,0.0-12.0-0.25,Compares men and eomen according to their perception of perspective?,,arrowleft,1122,spatial,,img/spatial/version2/26.png,,,231117,,39,image-keyboard-response,
295,Spatial,True,spatial,False,,,,mens,Female,0.0-12.0-0.26,Compares men and eomen according to their perception of perspective?,,arrowright,617,spatial,,img/spatial/version2/27.png,,,231734,,40,image-keyboard-response,
295,Spatial,True,spatial,True,,,,mens,Female,0.0-12.0-0.27,Compares men and eomen according to their perception of perspective?,,arrowright,842,spatial,,img/spatial/version2/28.png,,,232577,,41,image-keyboard-response,
295,Spatial,True,spatial,False,,,,mens,Female,0.0-12.0-0.28,Compares men and eomen according to their perception of perspective?,,,,spatial,ended early,,,,233033,,42,image-keyboard-response,
295,Spatial,True,spatial,,,,,mens,Female,0.0-13.0,Compares men and eomen according to their perception of perspective?,,0,3885,spatial,,"<div style=""text-align: left;padding: 0 20vw;""><p style=""font-size:20px; color:black;""><p>You have finished the task - thanks for participating! A few more questions before you go. </p>",,,236919,,43,html-button-response,
295,Spatial,True,spatial,,,,,mens,Female,0.0-14.0,Compares men and eomen according to their perception of perspective?,,{'Hypothesis': 'Compares men and eomen according to their perception of perspective?'},60189,spatial,,,,,297111,,44,survey-text,
295,Spatial,True,spatial,,,,,mens,Female,0.0-15.0,Compares men and eomen according to their perception of perspective?,[0],{'sex': 'Female'},2063,spatial,,,,,299175,,45,survey-multi-choice,
295,Spatial,True,spatial,,,,,mens,Female,0.0-16.0,Compares men and eomen according to their perception of perspective?,[0],{'q2': 'spatial ability'},5933,spatial,,,,,305112,,46,survey-multi-choice,
295,Spatial,True,spatial,,,,,mens,Female,0.0-17.0,Compares men and eomen according to their perception of perspective?,[0],{'q3': 'Males'},7014,spatial,,,,,312128,,47,survey-multi-choice,
295,Spatial,True,spatial,,,,,mens,Female,0.0-18.0,Compares men and eomen according to their perception of perspective?,,{'technicalDifficulties': ''},3067,spatial,,,,,315199,,48,survey-text,
295,Spatial,True,spatial,,,,,mens,Female,0.0-19.0,Compares men and eomen according to their perception of perspective?,,0,3012,spatial,,"<div style=""text-align: left;padding: 0 20vw;""><p style=""font-size:20px; color:black;""><p>Thanks for participating! In this study the task is framed either as a spatial task (which male participants typically perform better on) or a social task (which female participants typically perform better on). We are looking at the effect of gender bias in problem framing on performance. We ask that you please do not share this information with other potential participants. </p>",,,318212,,49,html-button-response,
236,Spatial,True,spatial,,,,,male,Female,0.0-0.0,No idea,,,,spatial,,,True,,4332,,0,fullscreen,
236,Spatial,True,spatial,,[],[],[],male,Female,0.0-1.0,No idea,,,,spatial,,,True,,5749,False,1,preload,
236,Spatial,True,spatial,,,,,male,Female,0.0-2.0,No idea,,0,3522,spatial,,"<div style=""text-align: left;padding: 0 20vw;""><p style=""font-size:20px; color:black;""><p>By answering the following questions, you are participating in a study being performed by cognitive scientists in the Stanford Department of Psychology. </p><p>If you have questions about this research, please contact us at stanfordpsych251@gmail.com. </p><p>You must be at least 18 years old to participate. Your participation in this research is voluntary. You may decline to answer any or all of the following questions. You may decline further participation, at any time, without adverse consequences. </p><p>Your anonymity is assured; the researchers who have requested your participation will not receive any personal information about you.</p>",,,9271,,2,html-button-response,
236,Spatial,True,spatial,,,,,male,Female,0.0-3.0,No idea,,0,2099,spatial,,"<div style=""text-align: left;padding: 0 20vw;""><p style=""font-size:20px; color:black;"">Our experiment is a task that tests your perspective taking ability.</p>",,,11371,,3,html-button-response,
236,Spatial,True,spatial,,,,,male,Female,0.0-4.0,No idea,,0,1736,spatial,,"<div style=""text-align: left;padding: 0 20vw;""><p style=""font-size:20px; color:black;"">Perspective taking ability can be thought of as a measure of <strong>spatial ability</strong>.</p>",,,13109,,4,html-button-response,
236,Spatial,True,spatial,,,,,male,Female,0.0-5.0,No idea,,0,3831,spatial,,"<div style=""text-align: left;padding: 0 20vw;""><p style=""font-size:20px; color:black;""><p>Spatial ability is a cognitive ability that is defined as understanding the relations between objects in space and being able to mentally manipulate them and respond correctly.</p>",,,16943,,5,html-button-response,
236,Spatial,True,spatial,,,,,male,Female,0.0-6.0,No idea,,0,2336,spatial,,"<div style=""text-align: left;padding: 0 20vw;""><p style=""font-size:20px; color:black;"">Previous studies have shown that <strong>males often score higher on measures of spatial ability</strong>.</p>",,,19279,,6,html-button-response,
236,Spatial,True,spatial,,,,,male,Female,0.0-7.0,No idea,,"{'first': 'male', 'second': 'spatial'}",12164,spatial,,,,,31443,,7,survey-html-form,
236,Spatial,True,spatial,,,,,male,Female,0.0-8.0,No idea,,0,21067,spatial,,"<div style=""text-align: left;padding: 0 20vw;""><p>In this test, you will be shown a map of a city with a path drawn through it. </p>
      <p>Imagine yourself taking a walk through the path, following the direction of the dashed line.</p> 
      <p>At each turn that the path takes, which will be circled, 
      your task is to decide whether you would turn to your right or your left as you are walking. </p>
      <p>If it is a <strong> right turn</strong>, click on the <strong> right arrow key</strong>  on your keyboard,</p>
      <p>and if it is a <strong> left turn</strong>, click on the <strong> left arrow key</strong>  on your keyboard.</p>
      <p>You will first see three practice trials. </p>
      <p>Please do not turn your computer screen/head.</p>",,,52511,,8,html-button-response,
236,Spatial,True,spatial,,,,,male,Female,0.0-9.0,No idea,,0,5262,spatial,,"<div style=""text-align: left;padding: 0 20vw;""><p style=""font-size:20px; color:black;"">You will first see three practice trials</p><p><p>If it is a <strong> right turn</strong>, click on the <strong> right arrow key</strong>  on your keyboard,</p><p>and if it is a <strong> left turn</strong>, click on the <strong> left arrow key</strong>  on your keyboard.</p> ",,,57772,,9,html-button-response,
236,Spatial,True,spatial,,,,,male,Female,0.0-10.0-0.0,No idea,,arrowleft,7348,spatial,,img/spatial/version2/p1.png,,,65122,,10,image-keyboard-response,
236,Spatial,True,spatial,,,,,male,Female,0.0-10.0-1.0,No idea,,arrowright,3439,spatial,,img/spatial/version2/p2.png,,,68561,,11,image-keyboard-response,
236,Spatial,True,spatial,,,,,male,Female,0.0-10.0-2.0,No idea,,arrowright,2071,spatial,,img/spatial/version2/p3.png,,,70633,,12,image-keyboard-response,
236,Spatial,True,spatial,,,,,male,Female,0.0-11.0,No idea,,0,2463,spatial,,"<div style=""text-align: left;padding: 0 20vw;""><p style=""font-size:20px; color:black;""> Now, you will have 30 seconds to complete as many of the 32 trials as you can.",,,73096,,13,html-button-response,
236,Spatial,True,spatial,True,,,,male,Female,0.0-12.0-0.0,No idea,,arrowleft,4040,spatial,,img/spatial/version2/1.png,,,77137,,14,image-keyboard-response,
236,Spatial,True,spatial,True,,,,male,Female,0.0-12.0-0.1,No idea,,arrowleft,2223,spatial,,img/spatial/version2/2.png,,,79361,,15,image-keyboard-response,
236,Spatial,True,spatial,True,,,,male,Female,0.0-12.0-0.2,No idea,,arrowright,1096,spatial,,img/spatial/version2/3.png,,,80457,,16,image-keyboard-response,
236,Spatial,True,spatial,True,,,,male,Female,0.0-12.0-0.3,No idea,,arrowright,1335,spatial,,img/spatial/version2/4.png,,,81793,,17,image-keyboard-response,
236,Spatial,True,spatial,True,,,,male,Female,0.0-12.0-0.4,No idea,,arrowleft,2599,spatial,,img/spatial/version2/5.png,,,84393,,18,image-keyboard-response,
236,Spatial,True,spatial,True,,,,male,Female,0.0-12.0-0.5,No idea,,arrowleft,2303,spatial,,img/spatial/version2/6.png,,,86697,,19,image-keyboard-response,
236,Spatial,True,spatial,True,,,,male,Female,0.0-12.0-0.6,No idea,,arrowright,584,spatial,,img/spatial/version2/7.png,,,87281,,20,image-keyboard-response,
236,Spatial,True,spatial,True,,,,male,Female,0.0-12.0-0.7,No idea,,arrowright,1143,spatial,,img/spatial/version2/8.png,,,88425,,21,image-keyboard-response,
236,Spatial,True,spatial,True,,,,male,Female,0.0-12.0-0.8,No idea,,arrowright,815,spatial,,img/spatial/version2/9.png,,,89241,,22,image-keyboard-response,
236,Spatial,True,spatial,True,,,,male,Female,0.0-12.0-0.9,No idea,,arrowleft,671,spatial,,img/spatial/version2/10.png,,,89913,,23,image-keyboard-response,
236,Spatial,True,spatial,True,,,,male,Female,0.0-12.0-0.10,No idea,,arrowright,823,spatial,,img/spatial/version2/11.png,,,90737,,24,image-keyboard-response,
236,Spatial,True,spatial,True,,,,male,Female,0.0-12.0-0.11,No idea,,arrowleft,800,spatial,,img/spatial/version2/12.png,,,91537,,25,image-keyboard-response,
236,Spatial,True,spatial,True,,,,male,Female,0.0-12.0-0.12,No idea,,arrowleft,1656,spatial,,img/spatial/version2/13.png,,,93193,,26,image-keyboard-response,
236,Spatial,True,spatial,True,,,,male,Female,0.0-12.0-0.13,No idea,,arrowright,1600,spatial,,img/spatial/version2/14.png,,,94793,,27,image-keyboard-response,
236,Spatial,True,spatial,True,,,,male,Female,0.0-12.0-0.14,No idea,,arrowright,2168,spatial,,img/spatial/version2/15.png,,,96961,,28,image-keyboard-response,
236,Spatial,True,spatial,True,,,,male,Female,0.0-12.0-0.15,No idea,,arrowleft,584,spatial,,img/spatial/version2/16.png,,,97545,,29,image-keyboard-response,
236,Spatial,True,spatial,True,,,,male,Female,0.0-12.0-0.16,No idea,,arrowleft,1871,spatial,,img/spatial/version2/17.png,,,99417,,30,image-keyboard-response,
236,Spatial,True,spatial,True,,,,male,Female,0.0-12.0-0.17,No idea,,arrowright,496,spatial,,img/spatial/version2/18.png,,,99913,,31,image-keyboard-response,
236,Spatial,True,spatial,True,,,,male,Female,0.0-12.0-0.18,No idea,,arrowright,1088,spatial,,img/spatial/version2/19.png,,,101001,,32,image-keyboard-response,
236,Spatial,True,spatial,True,,,,male,Female,0.0-12.0-0.19,No idea,,arrowleft,768,spatial,,img/spatial/version2/20.png,,,101769,,33,image-keyboard-response,
236,Spatial,True,spatial,True,,,,male,Female,0.0-12.0-0.20,No idea,,arrowleft,800,spatial,,img/spatial/version2/21.png,,,102569,,34,image-keyboard-response,
236,Spatial,True,spatial,True,,,,male,Female,0.0-12.0-0.21,No idea,,arrowleft,183,spatial,,img/spatial/version2/22.png,,,102753,,35,image-keyboard-response,
236,Spatial,True,spatial,False,,,,male,Female,0.0-12.0-0.22,No idea,,,,spatial,ended early,,,,103104,,36,image-keyboard-response,
236,Spatial,True,spatial,,,,,male,Female,0.0-13.0,No idea,,0,4652,spatial,,"<div style=""text-align: left;padding: 0 20vw;""><p style=""font-size:20px; color:black;""><p>You have finished the task - thanks for participating! A few more questions before you go. </p>",,,107757,,37,html-button-response,
236,Spatial,True,spatial,,,,,male,Female,0.0-14.0,No idea,,{'Hypothesis': 'No idea'},34498,spatial,,,,,142258,,38,survey-text,
236,Spatial,True,spatial,,,,,male,Female,0.0-15.0,No idea,[0],{'sex': 'Female'},2343,spatial,,,,,144602,,39,survey-multi-choice,
236,Spatial,True,spatial,,,,,male,Female,0.0-16.0,No idea,[0],{'q2': 'spatial ability'},4098,spatial,,,,,148702,,40,survey-multi-choice,
236,Spatial,True,spatial,,,,,male,Female,0.0-17.0,No idea,[0],{'q3': 'Males'},2334,spatial,,,,,151038,,41,survey-multi-choice,
236,Spatial,True,spatial,,,,,male,Female,0.0-18.0,No idea,,{'technicalDifficulties': ''},4062,spatial,,,,,155102,,42,survey-text,
236,Spatial,True,spatial,,,,,male,Female,0.0-19.0,No idea,,0,12735,spatial,,"<div style=""text-align: left;padding: 0 20vw;""><p style=""font-size:20px; color:black;""><p>Thanks for participating! In this study the task is framed either as a spatial task (which male participants typically perform better on) or a social task (which female participants typically perform better on). We are looking at the effect of gender bias in problem framing on performance. We ask that you please do not share this information with other potential participants. </p>",,,167838,,43,html-button-response,
289,Spatial,True,spatial,,,,,males,Female,0.0-0.0,Either this is actually a test on spatial recognition or a test on male/female stereotypes and how that affect performance,,,,spatial,,,True,,7035,,0,fullscreen,
289,Spatial,True,spatial,,[],[],[],males,Female,0.0-1.0,Either this is actually a test on spatial recognition or a test on male/female stereotypes and how that affect performance,,,,spatial,,,True,,15588,False,1,preload,
289,Spatial,True,spatial,,,,,males,Female,0.0-2.0,Either this is actually a test on spatial recognition or a test on male/female stereotypes and how that affect performance,,0,16006,spatial,,"<div style=""text-align: left;padding: 0 20vw;""><p style=""font-size:20px; color:black;""><p>By answering the following questions, you are participating in a study being performed by cognitive scientists in the Stanford Department of Psychology. </p><p>If you have questions about this research, please contact us at stanfordpsych251@gmail.com. </p><p>You must be at least 18 years old to participate. Your participation in this research is voluntary. You may decline to answer any or all of the following questions. You may decline further participation, at any time, without adverse consequences. </p><p>Your anonymity is assured; the researchers who have requested your participation will not receive any personal information about you.</p>",,,31598,,2,html-button-response,
289,Spatial,True,spatial,,,,,males,Female,0.0-3.0,Either this is actually a test on spatial recognition or a test on male/female stereotypes and how that affect performance,,0,2586,spatial,,"<div style=""text-align: left;padding: 0 20vw;""><p style=""font-size:20px; color:black;"">Our experiment is a task that tests your perspective taking ability.</p>",,,34186,,3,html-button-response,
289,Spatial,True,spatial,,,,,males,Female,0.0-4.0,Either this is actually a test on spatial recognition or a test on male/female stereotypes and how that affect performance,,0,2436,spatial,,"<div style=""text-align: left;padding: 0 20vw;""><p style=""font-size:20px; color:black;"">Perspective taking ability can be thought of as a measure of <strong>spatial ability</strong>.</p>",,,36624,,4,html-button-response,
289,Spatial,True,spatial,,,,,males,Female,0.0-5.0,Either this is actually a test on spatial recognition or a test on male/female stereotypes and how that affect performance,,0,6772,spatial,,"<div style=""text-align: left;padding: 0 20vw;""><p style=""font-size:20px; color:black;""><p>Spatial ability is a cognitive ability that is defined as understanding the relations between objects in space and being able to mentally manipulate them and respond correctly.</p>",,,43400,,5,html-button-response,
289,Spatial,True,spatial,,,,,males,Female,0.0-6.0,Either this is actually a test on spatial recognition or a test on male/female stereotypes and how that affect performance,,0,2711,spatial,,"<div style=""text-align: left;padding: 0 20vw;""><p style=""font-size:20px; color:black;"">Previous studies have shown that <strong>males often score higher on measures of spatial ability</strong>.</p>",,,46112,,6,html-button-response,
289,Spatial,True,spatial,,,,,males,Female,0.0-7.0,Either this is actually a test on spatial recognition or a test on male/female stereotypes and how that affect performance,,"{'first': 'males', 'second': 'spatial'}",8053,spatial,,,,,54168,,7,survey-html-form,
289,Spatial,True,spatial,,,,,males,Female,0.0-8.0,Either this is actually a test on spatial recognition or a test on male/female stereotypes and how that affect performance,,0,37061,spatial,,"<div style=""text-align: left;padding: 0 20vw;""><p>In this test, you will be shown a map of a city with a path drawn through it. </p>
      <p>Imagine yourself taking a walk through the path, following the direction of the dashed line.</p> 
      <p>At each turn that the path takes, which will be circled, 
      your task is to decide whether you would turn to your right or your left as you are walking. </p>
      <p>If it is a <strong> right turn</strong>, click on the <strong> right arrow key</strong>  on your keyboard,</p>
      <p>and if it is a <strong> left turn</strong>, click on the <strong> left arrow key</strong>  on your keyboard.</p>
      <p>You will first see three practice trials. </p>
      <p>Please do not turn your computer screen/head.</p>",,,91233,,8,html-button-response,
289,Spatial,True,spatial,,,,,males,Female,0.0-9.0,Either this is actually a test on spatial recognition or a test on male/female stereotypes and how that affect performance,,0,3813,spatial,,"<div style=""text-align: left;padding: 0 20vw;""><p style=""font-size:20px; color:black;"">You will first see three practice trials</p><p><p>If it is a <strong> right turn</strong>, click on the <strong> right arrow key</strong>  on your keyboard,</p><p>and if it is a <strong> left turn</strong>, click on the <strong> left arrow key</strong>  on your keyboard.</p> ",,,95049,,9,html-button-response,
289,Spatial,True,spatial,,,,,males,Female,0.0-10.0-0.0,Either this is actually a test on spatial recognition or a test on male/female stereotypes and how that affect performance,,arrowleft,9973,spatial,,img/spatial/version2/p1.png,,,105198,,10,image-keyboard-response,
289,Spatial,True,spatial,,,,,males,Female,0.0-10.0-1.0,Either this is actually a test on spatial recognition or a test on male/female stereotypes and how that affect performance,,arrowright,2668,spatial,,img/spatial/version2/p2.png,,,107873,,11,image-keyboard-response,
289,Spatial,True,spatial,,,,,males,Female,0.0-10.0-2.0,Either this is actually a test on spatial recognition or a test on male/female stereotypes and how that affect performance,,arrowright,573,spatial,,img/spatial/version2/p3.png,,,108451,,12,image-keyboard-response,
289,Spatial,True,spatial,,,,,males,Female,0.0-11.0,Either this is actually a test on spatial recognition or a test on male/female stereotypes and how that affect performance,,0,4496,spatial,,"<div style=""text-align: left;padding: 0 20vw;""><p style=""font-size:20px; color:black;""> Now, you will have 30 seconds to complete as many of the 32 trials as you can.",,,112949,,13,html-button-response,
289,Spatial,True,spatial,True,,,,males,Female,0.0-12.0-0.0,Either this is actually a test on spatial recognition or a test on male/female stereotypes and how that affect performance,,arrowleft,3476,spatial,,img/spatial/version2/1.png,,,116431,,14,image-keyboard-response,
289,Spatial,True,spatial,True,,,,males,Female,0.0-12.0-0.1,Either this is actually a test on spatial recognition or a test on male/female stereotypes and how that affect performance,,arrowleft,2008,spatial,,img/spatial/version2/2.png,,,118448,,15,image-keyboard-response,
289,Spatial,True,spatial,True,,,,males,Female,0.0-12.0-0.2,Either this is actually a test on spatial recognition or a test on male/female stereotypes and how that affect performance,,arrowright,913,spatial,,img/spatial/version2/3.png,,,119367,,16,image-keyboard-response,
289,Spatial,True,spatial,False,,,,males,Female,0.0-12.0-0.3,Either this is actually a test on spatial recognition or a test on male/female stereotypes and how that affect performance,,arrowleft,1174,spatial,,img/spatial/version2/4.png,,,120547,,17,image-keyboard-response,
289,Spatial,True,spatial,True,,,,males,Female,0.0-12.0-0.4,Either this is actually a test on spatial recognition or a test on male/female stereotypes and how that affect performance,,arrowleft,933,spatial,,img/spatial/version2/5.png,,,121486,,18,image-keyboard-response,
289,Spatial,True,spatial,True,,,,males,Female,0.0-12.0-0.5,Either this is actually a test on spatial recognition or a test on male/female stereotypes and how that affect performance,,arrowleft,2308,spatial,,img/spatial/version2/6.png,,,123801,,19,image-keyboard-response,
289,Spatial,True,spatial,True,,,,males,Female,0.0-12.0-0.6,Either this is actually a test on spatial recognition or a test on male/female stereotypes and how that affect performance,,arrowright,801,spatial,,img/spatial/version2/7.png,,,124606,,20,image-keyboard-response,
289,Spatial,True,spatial,False,,,,males,Female,0.0-12.0-0.7,Either this is actually a test on spatial recognition or a test on male/female stereotypes and how that affect performance,,arrowleft,1279,spatial,,img/spatial/version2/8.png,,,125891,,21,image-keyboard-response,
289,Spatial,True,spatial,True,,,,males,Female,0.0-12.0-0.8,Either this is actually a test on spatial recognition or a test on male/female stereotypes and how that affect performance,,arrowright,373,spatial,,img/spatial/version2/9.png,,,126270,,22,image-keyboard-response,
289,Spatial,True,spatial,True,,,,males,Female,0.0-12.0-0.9,Either this is actually a test on spatial recognition or a test on male/female stereotypes and how that affect performance,,arrowleft,1668,spatial,,img/spatial/version2/10.png,,,127943,,23,image-keyboard-response,
289,Spatial,True,spatial,True,,,,males,Female,0.0-12.0-0.10,Either this is actually a test on spatial recognition or a test on male/female stereotypes and how that affect performance,,arrowright,769,spatial,,img/spatial/version2/11.png,,,128732,,24,image-keyboard-response,
289,Spatial,True,spatial,True,,,,males,Female,0.0-12.0-0.11,Either this is actually a test on spatial recognition or a test on male/female stereotypes and how that affect performance,,arrowleft,583,spatial,,img/spatial/version2/12.png,,,129321,,25,image-keyboard-response,
289,Spatial,True,spatial,True,,,,males,Female,0.0-12.0-0.12,Either this is actually a test on spatial recognition or a test on male/female stereotypes and how that affect performance,,arrowleft,2718,spatial,,img/spatial/version2/13.png,,,132043,,26,image-keyboard-response,
289,Spatial,True,spatial,True,,,,males,Female,0.0-12.0-0.13,Either this is actually a test on spatial recognition or a test on male/female stereotypes and how that affect performance,,arrowright,1065,spatial,,img/spatial/version2/14.png,,,133113,,27,image-keyboard-response,
289,Spatial,True,spatial,True,,,,males,Female,0.0-12.0-0.14,Either this is actually a test on spatial recognition or a test on male/female stereotypes and how that affect performance,,arrowright,3106,spatial,,img/spatial/version2/15.png,,,136225,,28,image-keyboard-response,
289,Spatial,True,spatial,True,,,,males,Female,0.0-12.0-0.15,Either this is actually a test on spatial recognition or a test on male/female stereotypes and how that affect performance,,arrowleft,1446,spatial,,img/spatial/version2/16.png,,,137676,,29,image-keyboard-response,
289,Spatial,True,spatial,True,,,,males,Female,0.0-12.0-0.16,Either this is actually a test on spatial recognition or a test on male/female stereotypes and how that affect performance,,arrowleft,2726,spatial,,img/spatial/version2/17.png,,,140407,,30,image-keyboard-response,
289,Spatial,True,spatial,True,,,,males,Female,0.0-12.0-0.17,Either this is actually a test on spatial recognition or a test on male/female stereotypes and how that affect performance,,arrowright,1690,spatial,,img/spatial/version2/18.png,,,142110,,31,image-keyboard-response,
289,Spatial,True,spatial,True,,,,males,Female,0.0-12.0-0.18,Either this is actually a test on spatial recognition or a test on male/female stereotypes and how that affect performance,,arrowright,595,spatial,,img/spatial/version2/19.png,,,142709,,32,image-keyboard-response,
289,Spatial,True,spatial,False,,,,males,Female,0.0-12.0-0.19,Either this is actually a test on spatial recognition or a test on male/female stereotypes and how that affect performance,,,,spatial,ended early,,,,143009,,33,image-keyboard-response,
289,Spatial,True,spatial,,,,,males,Female,0.0-13.0,Either this is actually a test on spatial recognition or a test on male/female stereotypes and how that affect performance,,0,2750,spatial,,"<div style=""text-align: left;padding: 0 20vw;""><p style=""font-size:20px; color:black;""><p>You have finished the task - thanks for participating! A few more questions before you go. </p>",,,145760,,34,html-button-response,
289,Spatial,True,spatial,,,,,males,Female,0.0-14.0,Either this is actually a test on spatial recognition or a test on male/female stereotypes and how that affect performance,,{'Hypothesis': 'Either this is actually a test on spatial recognition or a test on male/female stereotypes and how that affect performance'},30607,spatial,,,,,176405,,35,survey-text,
289,Spatial,True,spatial,,,,,males,Female,0.0-15.0,Either this is actually a test on spatial recognition or a test on male/female stereotypes and how that affect performance,[0],{'sex': 'Female'},2321,spatial,,,,,178767,,36,survey-multi-choice,
289,Spatial,True,spatial,,,,,males,Female,0.0-16.0,Either this is actually a test on spatial recognition or a test on male/female stereotypes and how that affect performance,[0],{'q2': 'spatial ability'},4191,spatial,,,,,182966,,37,survey-multi-choice,
289,Spatial,True,spatial,,,,,males,Female,0.0-17.0,Either this is actually a test on spatial recognition or a test on male/female stereotypes and how that affect performance,[0],{'q3': 'Males'},2674,spatial,,,,,185647,,38,survey-multi-choice,
289,Spatial,True,spatial,,,,,males,Female,0.0-18.0,Either this is actually a test on spatial recognition or a test on male/female stereotypes and how that affect performance,,{'technicalDifficulties': ''},2890,spatial,,,,,188578,,39,survey-text,
289,Spatial,True,spatial,,,,,males,Female,0.0-19.0,Either this is actually a test on spatial recognition or a test on male/female stereotypes and how that affect performance,,0,10646,spatial,,"<div style=""text-align: left;padding: 0 20vw;""><p style=""font-size:20px; color:black;""><p>Thanks for participating! In this study the task is framed either as a spatial task (which male participants typically perform better on) or a social task (which female participants typically perform better on). We are looking at the effect of gender bias in problem framing on performance. We ask that you please do not share this information with other potential participants. </p>",,,199226,,40,html-button-response,
311,Spatial,True,spatial,,,,,Males,Female,0.0-0.0,,,,,spatial,,,True,,3196,,0,fullscreen,
311,Spatial,True,spatial,,[],[],[],Males,Female,0.0-1.0,,,,,spatial,,,True,,3666,False,1,preload,
311,Spatial,True,spatial,,,,,Males,Female,0.0-2.0,,,0,7094,spatial,,"<div style=""text-align: left;padding: 0 20vw;""><p style=""font-size:20px; color:black;""><p>By answering the following questions, you are participating in a study being performed by cognitive scientists in the Stanford Department of Psychology. </p><p>If you have questions about this research, please contact us at stanfordpsych251@gmail.com. </p><p>You must be at least 18 years old to participate. Your participation in this research is voluntary. You may decline to answer any or all of the following questions. You may decline further participation, at any time, without adverse consequences. </p><p>Your anonymity is assured; the researchers who have requested your participation will not receive any personal information about you.</p>",,,10763,,2,html-button-response,
311,Spatial,True,spatial,,,,,Males,Female,0.0-3.0,,,0,3796,spatial,,"<div style=""text-align: left;padding: 0 20vw;""><p style=""font-size:20px; color:black;"">Our experiment is a task that tests your perspective taking ability.</p>",,,14562,,3,html-button-response,
311,Spatial,True,spatial,,,,,Males,Female,0.0-4.0,,,0,2147,spatial,,"<div style=""text-align: left;padding: 0 20vw;""><p style=""font-size:20px; color:black;"">Perspective taking ability can be thought of as a measure of <strong>spatial ability</strong>.</p>",,,16710,,4,html-button-response,
311,Spatial,True,spatial,,,,,Males,Female,0.0-5.0,,,0,4116,spatial,,"<div style=""text-align: left;padding: 0 20vw;""><p style=""font-size:20px; color:black;""><p>Spatial ability is a cognitive ability that is defined as understanding the relations between objects in space and being able to mentally manipulate them and respond correctly.</p>",,,20828,,5,html-button-response,
311,Spatial,True,spatial,,,,,Males,Female,0.0-6.0,,,0,3766,spatial,,"<div style=""text-align: left;padding: 0 20vw;""><p style=""font-size:20px; color:black;"">Previous studies have shown that <strong>males often score higher on measures of spatial ability</strong>.</p>",,,24595,,6,html-button-response,
311,Spatial,True,spatial,,,,,Males,Female,0.0-7.0,,,"{'first': 'Males', 'second': 'spatial'}",8318,spatial,,,,,32914,,7,survey-html-form,
311,Spatial,True,spatial,,,,,Males,Female,0.0-8.0,,,0,31459,spatial,,"<div style=""text-align: left;padding: 0 20vw;""><p>In this test, you will be shown a map of a city with a path drawn through it. </p>
      <p>Imagine yourself taking a walk through the path, following the direction of the dashed line.</p> 
      <p>At each turn that the path takes, which will be circled, 
      your task is to decide whether you would turn to your right or your left as you are walking. </p>
      <p>If it is a <strong> right turn</strong>, click on the <strong> right arrow key</strong>  on your keyboard,</p>
      <p>and if it is a <strong> left turn</strong>, click on the <strong> left arrow key</strong>  on your keyboard.</p>
      <p>You will first see three practice trials. </p>
      <p>Please do not turn your computer screen/head.</p>",,,64374,,8,html-button-response,
311,Spatial,True,spatial,,,,,Males,Female,0.0-9.0,,,0,4700,spatial,,"<div style=""text-align: left;padding: 0 20vw;""><p style=""font-size:20px; color:black;"">You will first see three practice trials</p><p><p>If it is a <strong> right turn</strong>, click on the <strong> right arrow key</strong>  on your keyboard,</p><p>and if it is a <strong> left turn</strong>, click on the <strong> left arrow key</strong>  on your keyboard.</p> ",,,69076,,9,html-button-response,
311,Spatial,True,spatial,,,,,Males,Female,0.0-10.0-0.0,,,arrowleft,2261,spatial,,img/spatial/version2/p1.png,,,71407,,10,image-keyboard-response,
311,Spatial,True,spatial,,,,,Males,Female,0.0-10.0-1.0,,,arrowright,735,spatial,,img/spatial/version2/p2.png,,,72172,,11,image-keyboard-response,
311,Spatial,True,spatial,,,,,Males,Female,0.0-10.0-2.0,,,arrowright,604,spatial,,img/spatial/version2/p3.png,,,72795,,12,image-keyboard-response,
311,Spatial,True,spatial,,,,,Males,Female,0.0-11.0,,,0,2964,spatial,,"<div style=""text-align: left;padding: 0 20vw;""><p style=""font-size:20px; color:black;""> Now, you will have 30 seconds to complete as many of the 32 trials as you can.",,,75761,,13,html-button-response,
311,Spatial,True,spatial,True,,,,Males,Female,0.0-12.0-0.0,,,arrowleft,3839,spatial,,img/spatial/version2/1.png,,,79639,,14,image-keyboard-response,
311,Spatial,True,spatial,True,,,,Males,Female,0.0-12.0-0.1,,,arrowleft,772,spatial,,img/spatial/version2/2.png,,,80447,,15,image-keyboard-response,
311,Spatial,True,spatial,True,,,,Males,Female,0.0-12.0-0.2,,,arrowright,447,spatial,,img/spatial/version2/3.png,,,80935,,16,image-keyboard-response,
311,Spatial,True,spatial,True,,,,Males,Female,0.0-12.0-0.3,,,arrowright,524,spatial,,img/spatial/version2/4.png,,,81500,,17,image-keyboard-response,
311,Spatial,True,spatial,True,,,,Males,Female,0.0-12.0-0.4,,,arrowleft,574,spatial,,img/spatial/version2/5.png,,,82117,,18,image-keyboard-response,
311,Spatial,True,spatial,True,,,,Males,Female,0.0-12.0-0.5,,,arrowleft,2303,spatial,,img/spatial/version2/6.png,,,84465,,19,image-keyboard-response,
311,Spatial,True,spatial,True,,,,Males,Female,0.0-12.0-0.6,,,arrowright,780,spatial,,img/spatial/version2/7.png,,,85287,,20,image-keyboard-response,
311,Spatial,True,spatial,True,,,,Males,Female,0.0-12.0-0.7,,,arrowright,967,spatial,,img/spatial/version2/8.png,,,86301,,21,image-keyboard-response,
311,Spatial,True,spatial,True,,,,Males,Female,0.0-12.0-0.8,,,arrowright,566,spatial,,img/spatial/version2/9.png,,,86912,,22,image-keyboard-response,
311,Spatial,True,spatial,True,,,,Males,Female,0.0-12.0-0.9,,,arrowleft,457,spatial,,img/spatial/version2/10.png,,,87413,,23,image-keyboard-response,
311,Spatial,True,spatial,True,,,,Males,Female,0.0-12.0-0.10,,,arrowright,468,spatial,,img/spatial/version2/11.png,,,87926,,24,image-keyboard-response,
311,Spatial,True,spatial,True,,,,Males,Female,0.0-12.0-0.11,,,arrowleft,658,spatial,,img/spatial/version2/12.png,,,88626,,25,image-keyboard-response,
311,Spatial,True,spatial,True,,,,Males,Female,0.0-12.0-0.12,,,arrowleft,1342,spatial,,img/spatial/version2/13.png,,,90012,,26,image-keyboard-response,
311,Spatial,True,spatial,False,,,,Males,Female,0.0-12.0-0.13,,,arrowleft,1941,spatial,,img/spatial/version2/14.png,,,91994,,27,image-keyboard-response,
311,Spatial,True,spatial,True,,,,Males,Female,0.0-12.0-0.14,,,arrowright,1175,spatial,,img/spatial/version2/15.png,,,93198,,28,image-keyboard-response,
311,Spatial,True,spatial,True,,,,Males,Female,0.0-12.0-0.15,,,arrowleft,2037,spatial,,img/spatial/version2/16.png,,,95263,,29,image-keyboard-response,
311,Spatial,True,spatial,True,,,,Males,Female,0.0-12.0-0.16,,,arrowleft,1860,spatial,,img/spatial/version2/17.png,,,97161,,30,image-keyboard-response,
311,Spatial,True,spatial,True,,,,Males,Female,0.0-12.0-0.17,,,arrowright,398,spatial,,img/spatial/version2/18.png,,,97596,,31,image-keyboard-response,
311,Spatial,True,spatial,True,,,,Males,Female,0.0-12.0-0.18,,,arrowright,484,spatial,,img/spatial/version2/19.png,,,98116,,32,image-keyboard-response,
311,Spatial,True,spatial,True,,,,Males,Female,0.0-12.0-0.19,,,arrowleft,893,spatial,,img/spatial/version2/20.png,,,99039,,33,image-keyboard-response,
311,Spatial,True,spatial,True,,,,Males,Female,0.0-12.0-0.20,,,arrowleft,718,spatial,,img/spatial/version2/21.png,,,99794,,34,image-keyboard-response,
311,Spatial,True,spatial,True,,,,Males,Female,0.0-12.0-0.21,,,arrowleft,798,spatial,,img/spatial/version2/22.png,,,100630,,35,image-keyboard-response,
311,Spatial,True,spatial,True,,,,Males,Female,0.0-12.0-0.22,,,arrowright,579,spatial,,img/spatial/version2/23.png,,,101245,,36,image-keyboard-response,
311,Spatial,True,spatial,True,,,,Males,Female,0.0-12.0-0.23,,,arrowright,616,spatial,,img/spatial/version2/24.png,,,101898,,37,image-keyboard-response,
311,Spatial,True,spatial,True,,,,Males,Female,0.0-12.0-0.24,,,arrowleft,1650,spatial,,img/spatial/version2/25.png,,,103586,,38,image-keyboard-response,
311,Spatial,True,spatial,True,,,,Males,Female,0.0-12.0-0.25,,,arrowleft,963,spatial,,img/spatial/version2/26.png,,,104586,,39,image-keyboard-response,
311,Spatial,True,spatial,True,,,,Males,Female,0.0-12.0-0.26,,,arrowleft,977,spatial,,img/spatial/version2/27.png,,,105597,,40,image-keyboard-response,
311,Spatial,True,spatial,False,,,,Males,Female,0.0-12.0-0.27,,,,,spatial,ended early,,,,105806,,41,image-keyboard-response,
311,Spatial,True,spatial,,,,,Males,Female,0.0-13.0,,,0,2516,spatial,,"<div style=""text-align: left;padding: 0 20vw;""><p style=""font-size:20px; color:black;""><p>You have finished the task - thanks for participating! A few more questions before you go. </p>",,,108325,,42,html-button-response,
311,Spatial,True,spatial,,,,,Males,Female,0.0-14.0,,,{'Hypothesis': ''},11354,spatial,,,,,119691,,43,survey-text,
311,Spatial,True,spatial,,,,,Males,Female,0.0-15.0,,[0],{'sex': 'Female'},1902,spatial,,,,,121594,,44,survey-multi-choice,
311,Spatial,True,spatial,,,,,Males,Female,0.0-16.0,,[0],{'q2': 'spatial ability'},5446,spatial,,,,,127044,,45,survey-multi-choice,
311,Spatial,True,spatial,,,,,Males,Female,0.0-17.0,,[0],{'q3': 'Males'},2581,spatial,,,,,129627,,46,survey-multi-choice,
311,Spatial,True,spatial,,,,,Males,Female,0.0-18.0,,,{'technicalDifficulties': ''},2409,spatial,,,,,132042,,47,survey-text,
311,Spatial,True,spatial,,,,,Males,Female,0.0-19.0,,,0,15048,spatial,,"<div style=""text-align: left;padding: 0 20vw;""><p style=""font-size:20px; color:black;""><p>Thanks for participating! In this study the task is framed either as a spatial task (which male participants typically perform better on) or a social task (which female participants typically perform better on). We are looking at the effect of gender bias in problem framing on performance. We ask that you please do not share this information with other potential participants. </p>",,,147091,,48,html-button-response,
305,Spatial,True,spatial,,,,,males,Female,0.0-0.0,how fast people can imagine different perspectives ,,,,spatial,,,True,,4098,,0,fullscreen,
305,Spatial,True,spatial,,[],[],[],males,Female,0.0-1.0,how fast people can imagine different perspectives ,,,,spatial,,,True,,5292,False,1,preload,
305,Spatial,True,spatial,,,,,males,Female,0.0-2.0,how fast people can imagine different perspectives ,,0,3589,spatial,,"<div style=""text-align: left;padding: 0 20vw;""><p style=""font-size:20px; color:black;""><p>By answering the following questions, you are participating in a study being performed by cognitive scientists in the Stanford Department of Psychology. </p><p>If you have questions about this research, please contact us at stanfordpsych251@gmail.com. </p><p>You must be at least 18 years old to participate. Your participation in this research is voluntary. You may decline to answer any or all of the following questions. You may decline further participation, at any time, without adverse consequences. </p><p>Your anonymity is assured; the researchers who have requested your participation will not receive any personal information about you.</p>",,,8882,,2,html-button-response,
305,Spatial,True,spatial,,,,,males,Female,0.0-3.0,how fast people can imagine different perspectives ,,0,2008,spatial,,"<div style=""text-align: left;padding: 0 20vw;""><p style=""font-size:20px; color:black;"">Our experiment is a task that tests your perspective taking ability.</p>",,,10891,,3,html-button-response,
305,Spatial,True,spatial,,,,,males,Female,0.0-4.0,how fast people can imagine different perspectives ,,0,2231,spatial,,"<div style=""text-align: left;padding: 0 20vw;""><p style=""font-size:20px; color:black;"">Perspective taking ability can be thought of as a measure of <strong>spatial ability</strong>.</p>",,,13123,,4,html-button-response,
