workerid,proliferate.condition,bothQuestionsCorrect,condition,correct,failed_audio,failed_images,failed_video,first,gender,internal_node_id,participant_hypothesis,question_order,response,rt,second,stimulus,success,tech_difficulty,time_elapsed,timeout,trial_index,trial_type,error
325,Empathetic,True,social,,,,,Females,Male,0.0-0.0,Some corelation between empathetic ability and coordination skills,,,,empathetic,,True,No difficulties,3155,,0,fullscreen,
325,Empathetic,True,social,,[],[],[],Females,Male,0.0-1.0,Some corelation between empathetic ability and coordination skills,,,,empathetic,,True,No difficulties,4775,False,1,preload,
325,Empathetic,True,social,,,,,Females,Male,0.0-2.0,Some corelation between empathetic ability and coordination skills,,0,12724,empathetic,"<div style=""text-align: left;padding: 0 20vw;""><p style=""font-size:20px; color:black;""><p>By answering the following questions, you are participating in a study being performed by cognitive scientists in the Stanford Department of Psychology. </p><p>If you have questions about this research, please contact us at stanfordpsych251@gmail.com. </p><p>You must be at least 18 years old to participate. Your participation in this research is voluntary. You may decline to answer any or all of the following questions. You may decline further participation, at any time, without adverse consequences. </p><p>Your anonymity is assured; the researchers who have requested your participation will not receive any personal information about you.</p>",,No difficulties,17502,,2,html-button-response,
325,Empathetic,True,social,,,,,Females,Male,0.0-3.0,Some corelation between empathetic ability and coordination skills,,0,1635,empathetic,"<div style=""text-align: left;padding: 0 20vw;""><p style=""font-size:20px; color:black;"">Our experiment is a task that tests your perspective taking ability.</p>",,No difficulties,19142,,3,html-button-response,
325,Empathetic,True,social,,,,,Females,Male,0.0-4.0,Some corelation between empathetic ability and coordination skills,,0,2101,empathetic,"<div style=""text-align: left;padding: 0 20vw;""><p style=""font-size:20px; color:black;"">Perspective taking ability can be thought of as a measure of <strong>empathetic ability</strong>.</p>",,No difficulties,21245,,4,html-button-response,
325,Empathetic,True,social,,,,,Females,Male,0.0-5.0,Some corelation between empathetic ability and coordination skills,,0,5767,empathetic,"<div style=""text-align: left;padding: 0 20vw;""><p style=""font-size:20px; color:black;""><p>Empathetic ability is a social ability that is defined as being able to identify with, and understand what another person is seeing or feeling, and respond appropriately.</p>",,No difficulties,27014,,5,html-button-response,
325,Empathetic,True,social,,,,,Females,Male,0.0-6.0,Some corelation between empathetic ability and coordination skills,,0,2731,empathetic,"<div style=""text-align: left;padding: 0 20vw;""><p style=""font-size:20px; color:black;"">Previous studies have shown that <strong>females often score higher on measures of empathetic ability</strong>.</p>",,No difficulties,29749,,6,html-button-response,
325,Empathetic,True,social,,,,,Females,Male,0.0-7.0,Some corelation between empathetic ability and coordination skills,,"{'first': 'Females', 'second': 'empathetic'}",8753,empathetic,,,No difficulties,38503,,7,survey-html-form,
325,Empathetic,True,social,,,,,Females,Male,0.0-8.0,Some corelation between empathetic ability and coordination skills,,0,98358,empathetic,"'<div style=""text-align: left;padding: 0 20vw;""><p>In this test, you will be shown a map of a city with a path drawn through it. </p>
      <p>Imagine yourself taking the perspective of the person on the map. Suppose that one day, you went for walk and followed the path through the city that is shown. </p> 
      <p>At each turn that the path takes, 
      your task is to decide whether you would turn to your right or your left as you are walking. </p>
      <p>If it is a <strong> right turn</strong>, click on the <strong> right arrow key</strong>  on your keyboard,</p>
      <p>and if it is a <strong> left turn</strong>, click on the <strong> left arrow key</strong>  on your keyboard.</p>
      <p>You will first see three practice trials. </p>
      <p>Please do not turn your computer screen/head.</p>",,No difficulties,136866,,8,html-button-response,
325,Empathetic,True,social,,,,,Females,Male,0.0-9.0,Some corelation between empathetic ability and coordination skills,,0,4738,empathetic,"<div style=""text-align: left;padding: 0 20vw;""><p style=""font-size:20px; color:black;"">You will first see three practice trials</p><p><p>If it is a <strong> right turn</strong>, click on the <strong> right arrow key</strong>  on your keyboard,</p><p>and if it is a <strong> left turn</strong>, click on the <strong> left arrow key</strong>  on your keyboard.</p> ",,No difficulties,141609,,9,html-button-response,
325,Empathetic,True,social,,,,,Females,Male,0.0-10.0-0.0,Some corelation between empathetic ability and coordination skills,,arrowleft,8099,empathetic,img/social/version2/p1.png,,No difficulties,149775,,10,image-keyboard-response,
325,Empathetic,True,social,,,,,Females,Male,0.0-10.0-1.0,Some corelation between empathetic ability and coordination skills,,arrowright,1030,empathetic,img/social/version2/p2.png,,No difficulties,150851,,11,image-keyboard-response,
325,Empathetic,True,social,,,,,Females,Male,0.0-10.0-2.0,Some corelation between empathetic ability and coordination skills,,arrowright,1513,empathetic,img/social/version2/p3.png,,No difficulties,152407,,12,image-keyboard-response,
325,Empathetic,True,social,,,,,Females,Male,0.0-11.0,Some corelation between empathetic ability and coordination skills,,0,4185,empathetic,"<div style=""text-align: left;padding: 0 20vw;""><p style=""font-size:20px; color:black;""> Now, you will have 30 seconds to complete as many of the 32 trials as you can.",,No difficulties,156594,,13,html-button-response,
325,Empathetic,True,social,True,,,,Females,Male,0.0-12.0-0.0,Some corelation between empathetic ability and coordination skills,,arrowleft,3056,empathetic,img/social/version2/1.png,,No difficulties,159705,,14,image-keyboard-response,
325,Empathetic,True,social,True,,,,Females,Male,0.0-12.0-0.1,Some corelation between empathetic ability and coordination skills,,arrowleft,1063,empathetic,img/social/version2/2.png,,No difficulties,160827,,15,image-keyboard-response,
325,Empathetic,True,social,True,,,,Females,Male,0.0-12.0-0.2,Some corelation between empathetic ability and coordination skills,,arrowright,1101,empathetic,img/social/version2/3.png,,No difficulties,161982,,16,image-keyboard-response,
325,Empathetic,True,social,True,,,,Females,Male,0.0-12.0-0.3,Some corelation between empathetic ability and coordination skills,,arrowright,1161,empathetic,img/social/version2/4.png,,No difficulties,163199,,17,image-keyboard-response,
325,Empathetic,True,social,True,,,,Females,Male,0.0-12.0-0.4,Some corelation between empathetic ability and coordination skills,,arrowleft,1014,empathetic,img/social/version2/5.png,,No difficulties,164268,,18,image-keyboard-response,
325,Empathetic,True,social,True,,,,Females,Male,0.0-12.0-0.5,Some corelation between empathetic ability and coordination skills,,arrowleft,1689,empathetic,img/social/version2/6.png,,No difficulties,166010,,19,image-keyboard-response,
325,Empathetic,True,social,True,,,,Females,Male,0.0-12.0-0.6,Some corelation between empathetic ability and coordination skills,,arrowright,1227,empathetic,img/social/version2/7.png,,No difficulties,167281,,20,image-keyboard-response,
325,Empathetic,True,social,True,,,,Females,Male,0.0-12.0-0.7,Some corelation between empathetic ability and coordination skills,,arrowright,1266,empathetic,img/social/version2/8.png,,No difficulties,168600,,21,image-keyboard-response,
325,Empathetic,True,social,True,,,,Females,Male,0.0-12.0-0.8,Some corelation between empathetic ability and coordination skills,,arrowright,704,empathetic,img/social/version2/9.png,,No difficulties,169360,,22,image-keyboard-response,
325,Empathetic,True,social,True,,,,Females,Male,0.0-12.0-0.9,Some corelation between empathetic ability and coordination skills,,arrowleft,453,empathetic,img/social/version2/10.png,,No difficulties,169864,,23,image-keyboard-response,
325,Empathetic,True,social,True,,,,Females,Male,0.0-12.0-0.10,Some corelation between empathetic ability and coordination skills,,arrowright,483,empathetic,img/social/version2/11.png,,No difficulties,170398,,24,image-keyboard-response,
325,Empathetic,True,social,True,,,,Females,Male,0.0-12.0-0.11,Some corelation between empathetic ability and coordination skills,,arrowleft,379,empathetic,img/social/version2/12.png,,No difficulties,170813,,25,image-keyboard-response,
325,Empathetic,True,social,True,,,,Females,Male,0.0-12.0-0.12,Some corelation between empathetic ability and coordination skills,,arrowleft,884,empathetic,img/social/version2/13.png,,No difficulties,171752,,26,image-keyboard-response,
325,Empathetic,True,social,True,,,,Females,Male,0.0-12.0-0.13,Some corelation between empathetic ability and coordination skills,,arrowright,556,empathetic,img/social/version2/14.png,,No difficulties,172360,,27,image-keyboard-response,
325,Empathetic,True,social,True,,,,Females,Male,0.0-12.0-0.14,Some corelation between empathetic ability and coordination skills,,arrowright,1303,empathetic,img/social/version2/15.png,,No difficulties,173708,,28,image-keyboard-response,
325,Empathetic,True,social,True,,,,Females,Male,0.0-12.0-0.15,Some corelation between empathetic ability and coordination skills,,arrowleft,993,empathetic,img/social/version2/16.png,,No difficulties,174747,,29,image-keyboard-response,
325,Empathetic,True,social,True,,,,Females,Male,0.0-12.0-0.16,Some corelation between empathetic ability and coordination skills,,arrowleft,827,empathetic,img/social/version2/17.png,,No difficulties,175599,,30,image-keyboard-response,
325,Empathetic,True,social,True,,,,Females,Male,0.0-12.0-0.17,Some corelation between empathetic ability and coordination skills,,arrowright,406,empathetic,img/social/version2/18.png,,No difficulties,176055,,31,image-keyboard-response,
325,Empathetic,True,social,True,,,,Females,Male,0.0-12.0-0.18,Some corelation between empathetic ability and coordination skills,,arrowright,688,empathetic,img/social/version2/19.png,,No difficulties,176789,,32,image-keyboard-response,
325,Empathetic,True,social,True,,,,Females,Male,0.0-12.0-0.19,Some corelation between empathetic ability and coordination skills,,arrowleft,569,empathetic,img/social/version2/20.png,,No difficulties,177395,,33,image-keyboard-response,
325,Empathetic,True,social,True,,,,Females,Male,0.0-12.0-0.20,Some corelation between empathetic ability and coordination skills,,arrowleft,534,empathetic,img/social/version2/21.png,,No difficulties,177980,,34,image-keyboard-response,
325,Empathetic,True,social,True,,,,Females,Male,0.0-12.0-0.21,Some corelation between empathetic ability and coordination skills,,arrowleft,839,empathetic,img/social/version2/22.png,,No difficulties,178870,,35,image-keyboard-response,
325,Empathetic,True,social,True,,,,Females,Male,0.0-12.0-0.22,Some corelation between empathetic ability and coordination skills,,arrowright,380,empathetic,img/social/version2/23.png,,No difficulties,179296,,36,image-keyboard-response,
325,Empathetic,True,social,True,,,,Females,Male,0.0-12.0-0.23,Some corelation between empathetic ability and coordination skills,,arrowright,452,empathetic,img/social/version2/24.png,,No difficulties,179795,,37,image-keyboard-response,
325,Empathetic,True,social,True,,,,Females,Male,0.0-12.0-0.24,Some corelation between empathetic ability and coordination skills,,arrowleft,1162,empathetic,img/social/version2/25.png,,No difficulties,181001,,38,image-keyboard-response,
325,Empathetic,True,social,True,,,,Females,Male,0.0-12.0-0.25,Some corelation between empathetic ability and coordination skills,,arrowleft,529,empathetic,img/social/version2/26.png,,No difficulties,181577,,39,image-keyboard-response,
325,Empathetic,True,social,True,,,,Females,Male,0.0-12.0-0.26,Some corelation between empathetic ability and coordination skills,,arrowleft,300,empathetic,img/social/version2/27.png,,No difficulties,181921,,40,image-keyboard-response,
325,Empathetic,True,social,True,,,,Females,Male,0.0-12.0-0.27,Some corelation between empathetic ability and coordination skills,,arrowright,578,empathetic,img/social/version2/28.png,,No difficulties,182545,,41,image-keyboard-response,
325,Empathetic,True,social,True,,,,Females,Male,0.0-12.0-0.28,Some corelation between empathetic ability and coordination skills,,arrowright,352,empathetic,img/social/version2/29.png,,No difficulties,182943,,42,image-keyboard-response,
325,Empathetic,True,social,False,,,,Females,Male,0.0-12.0-0.29,Some corelation between empathetic ability and coordination skills,,arrowright,299,empathetic,img/social/version2/30.png,,No difficulties,183288,,43,image-keyboard-response,
325,Empathetic,True,social,True,,,,Females,Male,0.0-12.0-0.30,Some corelation between empathetic ability and coordination skills,,arrowright,763,empathetic,img/social/version2/31.png,,No difficulties,184073,,44,image-keyboard-response,
325,Empathetic,True,social,True,,,,Females,Male,0.0-12.0-0.31,Some corelation between empathetic ability and coordination skills,,arrowright,567,empathetic,img/social/version2/32.png,,No difficulties,184686,,45,image-keyboard-response,
325,Empathetic,True,social,,,,,Females,Male,0.0-13.0,Some corelation between empathetic ability and coordination skills,,0,2363,empathetic,"<p style=""font-size:20px; color:black;""><p>You have finished the task - thanks for participating! A few more questions before you go. </p>",,No difficulties,187050,,46,html-button-response,
325,Empathetic,True,social,,,,,Females,Male,0.0-14.0,Some corelation between empathetic ability and coordination skills,,{'Hypothesis': 'Some corelation between empathetic ability and coordination skills'},17723,empathetic,,,No difficulties,204789,,47,survey-text,
325,Empathetic,True,social,,,,,Females,Male,0.0-15.0,Some corelation between empathetic ability and coordination skills,[0],{'sex': 'Male'},15508,empathetic,,,No difficulties,220302,,48,survey-multi-choice,
325,Empathetic,True,social,,,,,Females,Male,0.0-16.0,Some corelation between empathetic ability and coordination skills,[0],{'q2': 'empathetic ability'},34470,empathetic,,,No difficulties,254774,,49,survey-multi-choice,
325,Empathetic,True,social,,,,,Females,Male,0.0-17.0,Some corelation between empathetic ability and coordination skills,[0],{'q3': 'Females'},3110,empathetic,,,No difficulties,257887,,50,survey-multi-choice,
325,Empathetic,True,social,,,,,Females,Male,0.0-18.0,Some corelation between empathetic ability and coordination skills,,{'technicalDifficulties': 'No difficulties'},11638,empathetic,,,No difficulties,269534,,51,survey-text,
325,Empathetic,True,social,,,,,Females,Male,0.0-19.0,Some corelation between empathetic ability and coordination skills,,0,5108,empathetic,"<div style=""text-align: left;padding: 0 20vw;""><p style=""font-size:20px; color:black;""><p>Thanks for participating! In this study the task is framed either as a spatial task (which male participants typically perform better on) or a social task (which female participants typically perform better on). We are looking at the effect of gender bias in problem framing on performance. We ask that you please do not share this information with other potential participants. </p>",,No difficulties,274645,,52,html-button-response,
69,Empathetic,True,social,,,,,Females,Male,0.0-0.0,I don't know,,,,empathic,,True,No,3456,,0,fullscreen,
69,Empathetic,True,social,,[],[],[],Females,Male,0.0-1.0,I don't know,,,,empathic,,True,No,4403,False,1,preload,
69,Empathetic,True,social,,,,,Females,Male,0.0-2.0,I don't know,,0,1809,empathic,"<div style=""text-align: left;padding: 0 20vw;""><p style=""font-size:20px; color:black;""><p>By answering the following questions, you are participating in a study being performed by cognitive scientists in the Stanford Department of Psychology. </p><p>If you have questions about this research, please contact us at stanfordpsych251@gmail.com. </p><p>You must be at least 18 years old to participate. Your participation in this research is voluntary. You may decline to answer any or all of the following questions. You may decline further participation, at any time, without adverse consequences. </p><p>Your anonymity is assured; the researchers who have requested your participation will not receive any personal information about you.</p>",,No,6214,,2,html-button-response,
69,Empathetic,True,social,,,,,Females,Male,0.0-3.0,I don't know,,0,3500,empathic,"<div style=""text-align: left;padding: 0 20vw;""><p style=""font-size:20px; color:black;"">Our experiment is a task that tests your perspective taking ability.</p>",,No,9714,,3,html-button-response,
69,Empathetic,True,social,,,,,Females,Male,0.0-4.0,I don't know,,0,884,empathic,"<div style=""text-align: left;padding: 0 20vw;""><p style=""font-size:20px; color:black;"">Perspective taking ability can be thought of as a measure of <strong>empathetic ability</strong>.</p>",,No,10599,,4,html-button-response,
69,Empathetic,True,social,,,,,Females,Male,0.0-5.0,I don't know,,0,1176,empathic,"<div style=""text-align: left;padding: 0 20vw;""><p style=""font-size:20px; color:black;""><p>Empathetic ability is a social ability that is defined as being able to identify with, and understand what another person is seeing or feeling, and respond appropriately.</p>",,No,11775,,5,html-button-response,
69,Empathetic,True,social,,,,,Females,Male,0.0-6.0,I don't know,,0,1715,empathic,"<div style=""text-align: left;padding: 0 20vw;""><p style=""font-size:20px; color:black;"">Previous studies have shown that <strong>females often score higher on measures of empathetic ability</strong>.</p>",,No,13492,,6,html-button-response,
69,Empathetic,True,social,,,,,Females,Male,0.0-7.0,I don't know,,"{'first': 'Females', 'second': 'empathic'}",8392,empathic,,,No,21885,,7,survey-html-form,
69,Empathetic,True,social,,,,,Females,Male,0.0-8.0,I don't know,,0,15559,empathic,"'<div style=""text-align: left;padding: 0 20vw;""><p>In this test, you will be shown a map of a city with a path drawn through it. </p>
      <p>Imagine yourself taking the perspective of the person on the map. Suppose that one day, you went for walk and followed the path through the city that is shown. </p> 
      <p>At each turn that the path takes, 
      your task is to decide whether you would turn to your right or your left as you are walking. </p>
      <p>If it is a <strong> right turn</strong>, click on the <strong> right arrow key</strong>  on your keyboard,</p>
      <p>and if it is a <strong> left turn</strong>, click on the <strong> left arrow key</strong>  on your keyboard.</p>
      <p>You will first see three practice trials. </p>
      <p>Please do not turn your computer screen/head.</p>",,No,37445,,8,html-button-response,
69,Empathetic,True,social,,,,,Females,Male,0.0-9.0,I don't know,,0,2094,empathic,"<div style=""text-align: left;padding: 0 20vw;""><p style=""font-size:20px; color:black;"">You will first see three practice trials</p><p><p>If it is a <strong> right turn</strong>, click on the <strong> right arrow key</strong>  on your keyboard,</p><p>and if it is a <strong> left turn</strong>, click on the <strong> left arrow key</strong>  on your keyboard.</p> ",,No,39540,,9,html-button-response,
69,Empathetic,True,social,,,,,Females,Male,0.0-10.0-0.0,I don't know,,arrowleft,4212,empathic,img/social/version2/p1.png,,No,43754,,10,image-keyboard-response,
69,Empathetic,True,social,,,,,Females,Male,0.0-10.0-1.0,I don't know,,arrowright,701,empathic,img/social/version2/p2.png,,No,44455,,11,image-keyboard-response,
69,Empathetic,True,social,,,,,Females,Male,0.0-10.0-2.0,I don't know,,arrowright,922,empathic,img/social/version2/p3.png,,No,45378,,12,image-keyboard-response,
69,Empathetic,True,social,,,,,Females,Male,0.0-11.0,I don't know,,0,1975,empathic,"<div style=""text-align: left;padding: 0 20vw;""><p style=""font-size:20px; color:black;""> Now, you will have 30 seconds to complete as many of the 32 trials as you can.",,No,47354,,13,html-button-response,
69,Empathetic,True,social,True,,,,Females,Male,0.0-12.0-0.0,I don't know,,arrowleft,1564,empathic,img/social/version2/1.png,,No,48911,,14,image-keyboard-response,
69,Empathetic,True,social,True,,,,Females,Male,0.0-12.0-0.1,I don't know,,arrowleft,669,empathic,img/social/version2/2.png,,No,49581,,15,image-keyboard-response,
69,Empathetic,True,social,True,,,,Females,Male,0.0-12.0-0.2,I don't know,,arrowright,613,empathic,img/social/version2/3.png,,No,50195,,16,image-keyboard-response,
69,Empathetic,True,social,True,,,,Females,Male,0.0-12.0-0.3,I don't know,,arrowright,606,empathic,img/social/version2/4.png,,No,50802,,17,image-keyboard-response,
69,Empathetic,True,social,True,,,,Females,Male,0.0-12.0-0.4,I don't know,,arrowleft,641,empathic,img/social/version2/5.png,,No,51443,,18,image-keyboard-response,
69,Empathetic,True,social,False,,,,Females,Male,0.0-12.0-0.5,I don't know,,arrowright,2412,empathic,img/social/version2/6.png,,No,53856,,19,image-keyboard-response,
69,Empathetic,True,social,False,,,,Females,Male,0.0-12.0-0.6,I don't know,,arrowleft,757,empathic,img/social/version2/7.png,,No,54614,,20,image-keyboard-response,
69,Empathetic,True,social,True,,,,Females,Male,0.0-12.0-0.7,I don't know,,arrowright,1012,empathic,img/social/version2/8.png,,No,55627,,21,image-keyboard-response,
69,Empathetic,True,social,True,,,,Females,Male,0.0-12.0-0.8,I don't know,,arrowright,585,empathic,img/social/version2/9.png,,No,56213,,22,image-keyboard-response,
69,Empathetic,True,social,True,,,,Females,Male,0.0-12.0-0.9,I don't know,,arrowleft,478,empathic,img/social/version2/10.png,,No,56692,,23,image-keyboard-response,
69,Empathetic,True,social,False,,,,Females,Male,0.0-12.0-0.10,I don't know,,arrowleft,2279,empathic,img/social/version2/11.png,,No,58971,,24,image-keyboard-response,
69,Empathetic,True,social,True,,,,Females,Male,0.0-12.0-0.11,I don't know,,arrowleft,686,empathic,img/social/version2/12.png,,No,59658,,25,image-keyboard-response,
69,Empathetic,True,social,False,,,,Females,Male,0.0-12.0-0.12,I don't know,,arrowright,1636,empathic,img/social/version2/13.png,,No,61294,,26,image-keyboard-response,
69,Empathetic,True,social,True,,,,Females,Male,0.0-12.0-0.13,I don't know,,arrowright,875,empathic,img/social/version2/14.png,,No,62170,,27,image-keyboard-response,
69,Empathetic,True,social,False,,,,Females,Male,0.0-12.0-0.14,I don't know,,arrowleft,1173,empathic,img/social/version2/15.png,,No,63344,,28,image-keyboard-response,
69,Empathetic,True,social,False,,,,Females,Male,0.0-12.0-0.15,I don't know,,arrowright,753,empathic,img/social/version2/16.png,,No,64098,,29,image-keyboard-response,
69,Empathetic,True,social,True,,,,Females,Male,0.0-12.0-0.16,I don't know,,arrowleft,1463,empathic,img/social/version2/17.png,,No,65562,,30,image-keyboard-response,
69,Empathetic,True,social,True,,,,Females,Male,0.0-12.0-0.17,I don't know,,arrowright,524,empathic,img/social/version2/18.png,,No,66087,,31,image-keyboard-response,
69,Empathetic,True,social,True,,,,Females,Male,0.0-12.0-0.18,I don't know,,arrowright,1069,empathic,img/social/version2/19.png,,No,67157,,32,image-keyboard-response,
69,Empathetic,True,social,True,,,,Females,Male,0.0-12.0-0.19,I don't know,,arrowleft,902,empathic,img/social/version2/20.png,,No,68060,,33,image-keyboard-response,
69,Empathetic,True,social,True,,,,Females,Male,0.0-12.0-0.20,I don't know,,arrowleft,725,empathic,img/social/version2/21.png,,No,68786,,34,image-keyboard-response,
69,Empathetic,True,social,True,,,,Females,Male,0.0-12.0-0.21,I don't know,,arrowleft,756,empathic,img/social/version2/22.png,,No,69542,,35,image-keyboard-response,
69,Empathetic,True,social,True,,,,Females,Male,0.0-12.0-0.22,I don't know,,arrowright,504,empathic,img/social/version2/23.png,,No,70047,,36,image-keyboard-response,
69,Empathetic,True,social,True,,,,Females,Male,0.0-12.0-0.23,I don't know,,arrowright,452,empathic,img/social/version2/24.png,,No,70500,,37,image-keyboard-response,
69,Empathetic,True,social,False,,,,Females,Male,0.0-12.0-0.24,I don't know,,arrowright,1643,empathic,img/social/version2/25.png,,No,72144,,38,image-keyboard-response,
69,Empathetic,True,social,True,,,,Females,Male,0.0-12.0-0.25,I don't know,,arrowleft,2239,empathic,img/social/version2/26.png,,No,74383,,39,image-keyboard-response,
69,Empathetic,True,social,True,,,,Females,Male,0.0-12.0-0.26,I don't know,,arrowleft,1262,empathic,img/social/version2/27.png,,No,75646,,40,image-keyboard-response,
69,Empathetic,True,social,True,,,,Females,Male,0.0-12.0-0.27,I don't know,,arrowright,1019,empathic,img/social/version2/28.png,,No,76666,,41,image-keyboard-response,
69,Empathetic,True,social,False,,,,Females,Male,0.0-12.0-0.28,I don't know,,,,empathic,,,No,77351,,42,image-keyboard-response,
69,Empathetic,True,social,,,,,Females,Male,0.0-13.0,I don't know,,0,2292,empathic,"<p style=""font-size:20px; color:black;""><p>You have finished the task - thanks for participating! A few more questions before you go. </p>",,No,79644,,43,html-button-response,
69,Empathetic,True,social,,,,,Females,Male,0.0-14.0,I don't know,,"{'Hypothesis': ""I don't know""}",9910,empathic,,,No,89557,,44,survey-text,
69,Empathetic,True,social,,,,,Females,Male,0.0-15.0,I don't know,[0],{'sex': 'Male'},1982,empathic,,,No,91540,,45,survey-multi-choice,
69,Empathetic,True,social,,,,,Females,Male,0.0-16.0,I don't know,[0],{'q2': 'empathetic ability'},12536,empathic,,,No,104079,,46,survey-multi-choice,
69,Empathetic,True,social,,,,,Females,Male,0.0-17.0,I don't know,[0],{'q3': 'Females'},3728,empathic,,,No,107809,,47,survey-multi-choice,
69,Empathetic,True,social,,,,,Females,Male,0.0-18.0,I don't know,,{'technicalDifficulties': 'No'},4738,empathic,,,No,112559,,48,survey-text,
69,Empathetic,True,social,,,,,Females,Male,0.0-19.0,I don't know,,0,1026,empathic,"<div style=""text-align: left;padding: 0 20vw;""><p style=""font-size:20px; color:black;""><p>Thanks for participating! In this study the task is framed either as a spatial task (which male participants typically perform better on) or a social task (which female participants typically perform better on). We are looking at the effect of gender bias in problem framing on performance. We ask that you please do not share this information with other potential participants. </p>",,No,113587,,49,html-button-response,
103,Empathetic,True,social,,,,,Females,Male,0.0-0.0,Testing our IQ,,,,empathic ,,True,None,8320,,0,fullscreen,
103,Empathetic,True,social,,[],[],[],Females,Male,0.0-1.0,Testing our IQ,,,,empathic ,,True,None,11049,False,1,preload,
103,Empathetic,True,social,,,,,Females,Male,0.0-2.0,Testing our IQ,,0,2572,empathic ,"<div style=""text-align: left;padding: 0 20vw;""><p style=""font-size:20px; color:black;""><p>By answering the following questions, you are participating in a study being performed by cognitive scientists in the Stanford Department of Psychology. </p><p>If you have questions about this research, please contact us at stanfordpsych251@gmail.com. </p><p>You must be at least 18 years old to participate. Your participation in this research is voluntary. You may decline to answer any or all of the following questions. You may decline further participation, at any time, without adverse consequences. </p><p>Your anonymity is assured; the researchers who have requested your participation will not receive any personal information about you.</p>",,None,13622,,2,html-button-response,
103,Empathetic,True,social,,,,,Females,Male,0.0-3.0,Testing our IQ,,0,1141,empathic ,"<div style=""text-align: left;padding: 0 20vw;""><p style=""font-size:20px; color:black;"">Our experiment is a task that tests your perspective taking ability.</p>",,None,14764,,3,html-button-response,
103,Empathetic,True,social,,,,,Females,Male,0.0-4.0,Testing our IQ,,0,885,empathic ,"<div style=""text-align: left;padding: 0 20vw;""><p style=""font-size:20px; color:black;"">Perspective taking ability can be thought of as a measure of <strong>empathetic ability</strong>.</p>",,None,15650,,4,html-button-response,
103,Empathetic,True,social,,,,,Females,Male,0.0-5.0,Testing our IQ,,0,3660,empathic ,"<div style=""text-align: left;padding: 0 20vw;""><p style=""font-size:20px; color:black;""><p>Empathetic ability is a social ability that is defined as being able to identify with, and understand what another person is seeing or feeling, and respond appropriately.</p>",,None,19311,,5,html-button-response,
103,Empathetic,True,social,,,,,Females,Male,0.0-6.0,Testing our IQ,,0,3057,empathic ,"<div style=""text-align: left;padding: 0 20vw;""><p style=""font-size:20px; color:black;"">Previous studies have shown that <strong>females often score higher on measures of empathetic ability</strong>.</p>",,None,22368,,6,html-button-response,
103,Empathetic,True,social,,,,,Females,Male,0.0-7.0,Testing our IQ,,"{'first': 'Females', 'second': 'empathic '}",19493,empathic ,,,None,41862,,7,survey-html-form,
103,Empathetic,True,social,,,,,Females,Male,0.0-8.0,Testing our IQ,,0,12988,empathic ,"'<div style=""text-align: left;padding: 0 20vw;""><p>In this test, you will be shown a map of a city with a path drawn through it. </p>
      <p>Imagine yourself taking the perspective of the person on the map. Suppose that one day, you went for walk and followed the path through the city that is shown. </p> 
      <p>At each turn that the path takes, 
      your task is to decide whether you would turn to your right or your left as you are walking. </p>
      <p>If it is a <strong> right turn</strong>, click on the <strong> right arrow key</strong>  on your keyboard,</p>
      <p>and if it is a <strong> left turn</strong>, click on the <strong> left arrow key</strong>  on your keyboard.</p>
      <p>You will first see three practice trials. </p>
      <p>Please do not turn your computer screen/head.</p>",,None,54852,,8,html-button-response,
103,Empathetic,True,social,,,,,Females,Male,0.0-9.0,Testing our IQ,,0,1826,empathic ,"<div style=""text-align: left;padding: 0 20vw;""><p style=""font-size:20px; color:black;"">You will first see three practice trials</p><p><p>If it is a <strong> right turn</strong>, click on the <strong> right arrow key</strong>  on your keyboard,</p><p>and if it is a <strong> left turn</strong>, click on the <strong> left arrow key</strong>  on your keyboard.</p> ",,None,56679,,9,html-button-response,
103,Empathetic,True,social,,,,,Females,Male,0.0-10.0-0.0,Testing our IQ,,arrowright,5580,empathic ,img/social/version2/p1.png,,None,62264,,10,image-keyboard-response,
103,Empathetic,True,social,,,,,Females,Male,0.0-10.0-1.0,Testing our IQ,,arrowright,3055,empathic ,img/social/version2/p2.png,,None,65320,,11,image-keyboard-response,
103,Empathetic,True,social,,,,,Females,Male,0.0-10.0-2.0,Testing our IQ,,arrowright,2310,empathic ,img/social/version2/p3.png,,None,67632,,12,image-keyboard-response,
103,Empathetic,True,social,,,,,Females,Male,0.0-11.0,Testing our IQ,,0,2364,empathic ,"<div style=""text-align: left;padding: 0 20vw;""><p style=""font-size:20px; color:black;""> Now, you will have 30 seconds to complete as many of the 32 trials as you can.",,None,69997,,13,html-button-response,
103,Empathetic,True,social,True,,,,Females,Male,0.0-12.0-0.0,Testing our IQ,,arrowleft,1553,empathic ,img/social/version2/1.png,,None,71552,,14,image-keyboard-response,
103,Empathetic,True,social,True,,,,Females,Male,0.0-12.0-0.1,Testing our IQ,,arrowleft,902,empathic ,img/social/version2/2.png,,None,72455,,15,image-keyboard-response,
103,Empathetic,True,social,True,,,,Females,Male,0.0-12.0-0.2,Testing our IQ,,arrowright,1063,empathic ,img/social/version2/3.png,,None,73520,,16,image-keyboard-response,
103,Empathetic,True,social,True,,,,Females,Male,0.0-12.0-0.3,Testing our IQ,,arrowright,590,empathic ,img/social/version2/4.png,,None,74112,,17,image-keyboard-response,
103,Empathetic,True,social,True,,,,Females,Male,0.0-12.0-0.4,Testing our IQ,,arrowleft,743,empathic ,img/social/version2/5.png,,None,74855,,18,image-keyboard-response,
103,Empathetic,True,social,True,,,,Females,Male,0.0-12.0-0.5,Testing our IQ,,arrowleft,1366,empathic ,img/social/version2/6.png,,None,76223,,19,image-keyboard-response,
103,Empathetic,True,social,True,,,,Females,Male,0.0-12.0-0.6,Testing our IQ,,arrowright,1295,empathic ,img/social/version2/7.png,,None,77520,,20,image-keyboard-response,
103,Empathetic,True,social,True,,,,Females,Male,0.0-12.0-0.7,Testing our IQ,,arrowright,942,empathic ,img/social/version2/8.png,,None,78463,,21,image-keyboard-response,
103,Empathetic,True,social,True,,,,Females,Male,0.0-12.0-0.8,Testing our IQ,,arrowright,942,empathic ,img/social/version2/9.png,,None,79407,,22,image-keyboard-response,
103,Empathetic,True,social,True,,,,Females,Male,0.0-12.0-0.9,Testing our IQ,,arrowleft,503,empathic ,img/social/version2/10.png,,None,79911,,23,image-keyboard-response,
103,Empathetic,True,social,True,,,,Females,Male,0.0-12.0-0.10,Testing our IQ,,arrowright,807,empathic ,img/social/version2/11.png,,None,80719,,24,image-keyboard-response,
103,Empathetic,True,social,True,,,,Females,Male,0.0-12.0-0.11,Testing our IQ,,arrowleft,431,empathic ,img/social/version2/12.png,,None,81151,,25,image-keyboard-response,
103,Empathetic,True,social,True,,,,Females,Male,0.0-12.0-0.12,Testing our IQ,,arrowleft,999,empathic ,img/social/version2/13.png,,None,82151,,26,image-keyboard-response,
103,Empathetic,True,social,True,,,,Females,Male,0.0-12.0-0.13,Testing our IQ,,arrowright,367,empathic ,img/social/version2/14.png,,None,82519,,27,image-keyboard-response,
103,Empathetic,True,social,True,,,,Females,Male,0.0-12.0-0.14,Testing our IQ,,arrowright,1254,empathic ,img/social/version2/15.png,,None,83775,,28,image-keyboard-response,
103,Empathetic,True,social,True,,,,Females,Male,0.0-12.0-0.15,Testing our IQ,,arrowleft,438,empathic ,img/social/version2/16.png,,None,84215,,29,image-keyboard-response,
103,Empathetic,True,social,True,,,,Females,Male,0.0-12.0-0.16,Testing our IQ,,arrowleft,1183,empathic ,img/social/version2/17.png,,None,85399,,30,image-keyboard-response,
103,Empathetic,True,social,True,,,,Females,Male,0.0-12.0-0.17,Testing our IQ,,arrowright,359,empathic ,img/social/version2/18.png,,None,85759,,31,image-keyboard-response,
103,Empathetic,True,social,True,,,,Females,Male,0.0-12.0-0.18,Testing our IQ,,arrowright,1455,empathic ,img/social/version2/19.png,,None,87216,,32,image-keyboard-response,
103,Empathetic,True,social,True,,,,Females,Male,0.0-12.0-0.19,Testing our IQ,,arrowleft,814,empathic ,img/social/version2/20.png,,None,88031,,33,image-keyboard-response,
103,Empathetic,True,social,True,,,,Females,Male,0.0-12.0-0.20,Testing our IQ,,arrowleft,550,empathic ,img/social/version2/21.png,,None,88583,,34,image-keyboard-response,
103,Empathetic,True,social,True,,,,Females,Male,0.0-12.0-0.21,Testing our IQ,,arrowleft,430,empathic ,img/social/version2/22.png,,None,89015,,35,image-keyboard-response,
103,Empathetic,True,social,True,,,,Females,Male,0.0-12.0-0.22,Testing our IQ,,arrowright,462,empathic ,img/social/version2/23.png,,None,89479,,36,image-keyboard-response,
103,Empathetic,True,social,True,,,,Females,Male,0.0-12.0-0.23,Testing our IQ,,arrowright,415,empathic ,img/social/version2/24.png,,None,89895,,37,image-keyboard-response,
103,Empathetic,True,social,True,,,,Females,Male,0.0-12.0-0.24,Testing our IQ,,arrowleft,1207,empathic ,img/social/version2/25.png,,None,91103,,38,image-keyboard-response,
103,Empathetic,True,social,True,,,,Females,Male,0.0-12.0-0.25,Testing our IQ,,arrowleft,655,empathic ,img/social/version2/26.png,,None,91759,,39,image-keyboard-response,
103,Empathetic,True,social,True,,,,Females,Male,0.0-12.0-0.26,Testing our IQ,,arrowleft,1359,empathic ,img/social/version2/27.png,,None,93119,,40,image-keyboard-response,
103,Empathetic,True,social,True,,,,Females,Male,0.0-12.0-0.27,Testing our IQ,,arrowright,583,empathic ,img/social/version2/28.png,,None,93703,,41,image-keyboard-response,
103,Empathetic,True,social,True,,,,Females,Male,0.0-12.0-0.28,Testing our IQ,,arrowright,494,empathic ,img/social/version2/29.png,,None,94199,,42,image-keyboard-response,
103,Empathetic,True,social,True,,,,Females,Male,0.0-12.0-0.29,Testing our IQ,,arrowleft,471,empathic ,img/social/version2/30.png,,None,94671,,43,image-keyboard-response,
103,Empathetic,True,social,True,,,,Females,Male,0.0-12.0-0.30,Testing our IQ,,arrowright,398,empathic ,img/social/version2/31.png,,None,95071,,44,image-keyboard-response,
103,Empathetic,True,social,True,,,,Females,Male,0.0-12.0-0.31,Testing our IQ,,arrowright,815,empathic ,img/social/version2/32.png,,None,95887,,45,image-keyboard-response,
103,Empathetic,True,social,,,,,Females,Male,0.0-13.0,Testing our IQ,,0,1900,empathic ,"<p style=""font-size:20px; color:black;""><p>You have finished the task - thanks for participating! A few more questions before you go. </p>",,None,97788,,46,html-button-response,
103,Empathetic,True,social,,,,,Females,Male,0.0-14.0,Testing our IQ,,{'Hypothesis': 'Testing our IQ'},8914,empathic ,,,None,106706,,47,survey-text,
103,Empathetic,True,social,,,,,Females,Male,0.0-15.0,Testing our IQ,[0],{'sex': 'Male'},1638,empathic ,,,None,108346,,48,survey-multi-choice,
103,Empathetic,True,social,,,,,Females,Male,0.0-16.0,Testing our IQ,[0],{'q2': 'empathetic ability'},5184,empathic ,,,None,113532,,49,survey-multi-choice,
103,Empathetic,True,social,,,,,Females,Male,0.0-17.0,Testing our IQ,[0],{'q3': 'Females'},3327,empathic ,,,None,116861,,50,survey-multi-choice,
103,Empathetic,True,social,,,,,Females,Male,0.0-18.0,Testing our IQ,,{'technicalDifficulties': 'None'},4630,empathic ,,,None,121494,,51,survey-text,
103,Empathetic,True,social,,,,,Females,Male,0.0-19.0,Testing our IQ,,0,2505,empathic ,"<div style=""text-align: left;padding: 0 20vw;""><p style=""font-size:20px; color:black;""><p>Thanks for participating! In this study the task is framed either as a spatial task (which male participants typically perform better on) or a social task (which female participants typically perform better on). We are looking at the effect of gender bias in problem framing on performance. We ask that you please do not share this information with other potential participants. </p>",,None,124000,,52,html-button-response,
181,Empathetic,True,social,,,,,Women,Male,0.0-0.0,,,,,empathic,,True,,2720,,0,fullscreen,
181,Empathetic,True,social,,[],[],[],Women,Male,0.0-1.0,,,,,empathic,,True,,8325,False,1,preload,
181,Empathetic,True,social,,,,,Women,Male,0.0-2.0,,,0,2370,empathic,"<div style=""text-align: left;padding: 0 20vw;""><p style=""font-size:20px; color:black;""><p>By answering the following questions, you are participating in a study being performed by cognitive scientists in the Stanford Department of Psychology. </p><p>If you have questions about this research, please contact us at stanfordpsych251@gmail.com. </p><p>You must be at least 18 years old to participate. Your participation in this research is voluntary. You may decline to answer any or all of the following questions. You may decline further participation, at any time, without adverse consequences. </p><p>Your anonymity is assured; the researchers who have requested your participation will not receive any personal information about you.</p>",,,10696,,2,html-button-response,
181,Empathetic,True,social,,,,,Women,Male,0.0-3.0,,,0,1306,empathic,"<div style=""text-align: left;padding: 0 20vw;""><p style=""font-size:20px; color:black;"">Our experiment is a task that tests your perspective taking ability.</p>",,,12004,,3,html-button-response,
181,Empathetic,True,social,,,,,Women,Male,0.0-4.0,,,0,1295,empathic,"<div style=""text-align: left;padding: 0 20vw;""><p style=""font-size:20px; color:black;"">Perspective taking ability can be thought of as a measure of <strong>empathetic ability</strong>.</p>",,,13301,,4,html-button-response,
181,Empathetic,True,social,,,,,Women,Male,0.0-5.0,,,0,3102,empathic,"<div style=""text-align: left;padding: 0 20vw;""><p style=""font-size:20px; color:black;""><p>Empathetic ability is a social ability that is defined as being able to identify with, and understand what another person is seeing or feeling, and respond appropriately.</p>",,,16406,,5,html-button-response,
181,Empathetic,True,social,,,,,Women,Male,0.0-6.0,,,0,3436,empathic,"<div style=""text-align: left;padding: 0 20vw;""><p style=""font-size:20px; color:black;"">Previous studies have shown that <strong>females often score higher on measures of empathetic ability</strong>.</p>",,,19843,,6,html-button-response,
181,Empathetic,True,social,,,,,Women,Male,0.0-7.0,,,"{'first': 'Women', 'second': 'empathic'}",12104,empathic,,,,31950,,7,survey-html-form,
181,Empathetic,True,social,,,,,Women,Male,0.0-8.0,,,0,14475,empathic,"'<div style=""text-align: left;padding: 0 20vw;""><p>In this test, you will be shown a map of a city with a path drawn through it. </p>
      <p>Imagine yourself taking the perspective of the person on the map. Suppose that one day, you went for walk and followed the path through the city that is shown. </p> 
      <p>At each turn that the path takes, 
      your task is to decide whether you would turn to your right or your left as you are walking. </p>
      <p>If it is a <strong> right turn</strong>, click on the <strong> right arrow key</strong>  on your keyboard,</p>
      <p>and if it is a <strong> left turn</strong>, click on the <strong> left arrow key</strong>  on your keyboard.</p>
      <p>You will first see three practice trials. </p>
      <p>Please do not turn your computer screen/head.</p>",,,46428,,8,html-button-response,
181,Empathetic,True,social,,,,,Women,Male,0.0-9.0,,,0,4335,empathic,"<div style=""text-align: left;padding: 0 20vw;""><p style=""font-size:20px; color:black;"">You will first see three practice trials</p><p><p>If it is a <strong> right turn</strong>, click on the <strong> right arrow key</strong>  on your keyboard,</p><p>and if it is a <strong> left turn</strong>, click on the <strong> left arrow key</strong>  on your keyboard.</p> ",,,50765,,9,html-button-response,
181,Empathetic,True,social,,,,,Women,Male,0.0-10.0-0.0,,,arrowleft,4248,empathic,img/social/version2/p1.png,,,55019,,10,image-keyboard-response,
181,Empathetic,True,social,,,,,Women,Male,0.0-10.0-1.0,,,arrowright,848,empathic,img/social/version2/p2.png,,,55869,,11,image-keyboard-response,
181,Empathetic,True,social,,,,,Women,Male,0.0-10.0-2.0,,,arrowright,1392,empathic,img/social/version2/p3.png,,,57262,,12,image-keyboard-response,
181,Empathetic,True,social,,,,,Women,Male,0.0-11.0,,,0,2196,empathic,"<div style=""text-align: left;padding: 0 20vw;""><p style=""font-size:20px; color:black;""> Now, you will have 30 seconds to complete as many of the 32 trials as you can.",,,59460,,13,html-button-response,
181,Empathetic,True,social,True,,,,Women,Male,0.0-12.0-0.0,,,arrowleft,2347,empathic,img/social/version2/1.png,,,61809,,14,image-keyboard-response,
181,Empathetic,True,social,True,,,,Women,Male,0.0-12.0-0.1,,,arrowleft,978,empathic,img/social/version2/2.png,,,62789,,15,image-keyboard-response,
181,Empathetic,True,social,True,,,,Women,Male,0.0-12.0-0.2,,,arrowright,908,empathic,img/social/version2/3.png,,,63699,,16,image-keyboard-response,
181,Empathetic,True,social,True,,,,Women,Male,0.0-12.0-0.3,,,arrowright,699,empathic,img/social/version2/4.png,,,64399,,17,image-keyboard-response,
181,Empathetic,True,social,True,,,,Women,Male,0.0-12.0-0.4,,,arrowleft,717,empathic,img/social/version2/5.png,,,65119,,18,image-keyboard-response,
181,Empathetic,True,social,True,,,,Women,Male,0.0-12.0-0.5,,,arrowleft,2163,empathic,img/social/version2/6.png,,,67283,,19,image-keyboard-response,
181,Empathetic,True,social,True,,,,Women,Male,0.0-12.0-0.6,,,arrowright,884,empathic,img/social/version2/7.png,,,68169,,20,image-keyboard-response,
181,Empathetic,True,social,True,,,,Women,Male,0.0-12.0-0.7,,,arrowright,1108,empathic,img/social/version2/8.png,,,69278,,21,image-keyboard-response,
181,Empathetic,True,social,True,,,,Women,Male,0.0-12.0-0.8,,,arrowright,458,empathic,img/social/version2/9.png,,,69739,,22,image-keyboard-response,
181,Empathetic,True,social,True,,,,Women,Male,0.0-12.0-0.9,,,arrowleft,558,empathic,img/social/version2/10.png,,,70299,,23,image-keyboard-response,
181,Empathetic,True,social,True,,,,Women,Male,0.0-12.0-0.10,,,arrowright,1108,empathic,img/social/version2/11.png,,,71409,,24,image-keyboard-response,
181,Empathetic,True,social,True,,,,Women,Male,0.0-12.0-0.11,,,arrowleft,798,empathic,img/social/version2/12.png,,,72208,,25,image-keyboard-response,
181,Empathetic,True,social,True,,,,Women,Male,0.0-12.0-0.12,,,arrowleft,458,empathic,img/social/version2/13.png,,,72668,,26,image-keyboard-response,
181,Empathetic,True,social,True,,,,Women,Male,0.0-12.0-0.13,,,arrowright,559,empathic,img/social/version2/14.png,,,73229,,27,image-keyboard-response,
181,Empathetic,True,social,True,,,,Women,Male,0.0-12.0-0.14,,,arrowright,1268,empathic,img/social/version2/15.png,,,74499,,28,image-keyboard-response,
181,Empathetic,True,social,True,,,,Women,Male,0.0-12.0-0.15,,,arrowleft,698,empathic,img/social/version2/16.png,,,75198,,29,image-keyboard-response,
181,Empathetic,True,social,True,,,,Women,Male,0.0-12.0-0.16,,,arrowleft,1049,empathic,img/social/version2/17.png,,,76248,,30,image-keyboard-response,
181,Empathetic,True,social,True,,,,Women,Male,0.0-12.0-0.17,,,arrowright,308,empathic,img/social/version2/18.png,,,76558,,31,image-keyboard-response,
181,Empathetic,True,social,True,,,,Women,Male,0.0-12.0-0.18,,,arrowright,349,empathic,img/social/version2/19.png,,,76909,,32,image-keyboard-response,
181,Empathetic,True,social,True,,,,Women,Male,0.0-12.0-0.19,,,arrowleft,298,empathic,img/social/version2/20.png,,,77208,,33,image-keyboard-response,
181,Empathetic,True,social,True,,,,Women,Male,0.0-12.0-0.20,,,arrowleft,282,empathic,img/social/version2/21.png,,,77492,,34,image-keyboard-response,
181,Empathetic,True,social,True,,,,Women,Male,0.0-12.0-0.21,,,arrowleft,265,empathic,img/social/version2/22.png,,,77759,,35,image-keyboard-response,
181,Empathetic,True,social,True,,,,Women,Male,0.0-12.0-0.22,,,arrowright,219,empathic,img/social/version2/23.png,,,77978,,36,image-keyboard-response,
181,Empathetic,True,social,True,,,,Women,Male,0.0-12.0-0.23,,,arrowright,238,empathic,img/social/version2/24.png,,,78218,,37,image-keyboard-response,
181,Empathetic,True,social,True,,,,Women,Male,0.0-12.0-0.24,,,arrowleft,1328,empathic,img/social/version2/25.png,,,79548,,38,image-keyboard-response,
181,Empathetic,True,social,True,,,,Women,Male,0.0-12.0-0.25,,,arrowleft,369,empathic,img/social/version2/26.png,,,79918,,39,image-keyboard-response,
181,Empathetic,True,social,True,,,,Women,Male,0.0-12.0-0.26,,,arrowleft,328,empathic,img/social/version2/27.png,,,80249,,40,image-keyboard-response,
181,Empathetic,True,social,True,,,,Women,Male,0.0-12.0-0.27,,,arrowright,419,empathic,img/social/version2/28.png,,,80669,,41,image-keyboard-response,
181,Empathetic,True,social,True,,,,Women,Male,0.0-12.0-0.28,,,arrowright,488,empathic,img/social/version2/29.png,,,81158,,42,image-keyboard-response,
181,Empathetic,True,social,True,,,,Women,Male,0.0-12.0-0.29,,,arrowleft,287,empathic,img/social/version2/30.png,,,81448,,43,image-keyboard-response,
181,Empathetic,True,social,True,,,,Women,Male,0.0-12.0-0.30,,,arrowright,420,empathic,img/social/version2/31.png,,,81869,,44,image-keyboard-response,
181,Empathetic,True,social,True,,,,Women,Male,0.0-12.0-0.31,,,arrowright,238,empathic,img/social/version2/32.png,,,82108,,45,image-keyboard-response,
181,Empathetic,True,social,,,,,Women,Male,0.0-13.0,,,0,3696,empathic,"<p style=""font-size:20px; color:black;""><p>You have finished the task - thanks for participating! A few more questions before you go. </p>",,,85807,,46,html-button-response,
181,Empathetic,True,social,,,,,Women,Male,0.0-14.0,,,{'Hypothesis': ''},2984,empathic,,,,88798,,47,survey-text,
181,Empathetic,True,social,,,,,Women,Male,0.0-15.0,,[0],{'sex': 'Male'},2104,empathic,,,,90905,,48,survey-multi-choice,
181,Empathetic,True,social,,,,,Women,Male,0.0-16.0,,[0],{'q2': 'empathetic ability'},7320,empathic,,,,98231,,49,survey-multi-choice,
181,Empathetic,True,social,,,,,Women,Male,0.0-17.0,,[0],{'q3': 'Females'},2639,empathic,,,,100876,,50,survey-multi-choice,
181,Empathetic,True,social,,,,,Women,Male,0.0-18.0,,,{'technicalDifficulties': ''},1288,empathic,,,,102171,,51,survey-text,
181,Empathetic,True,social,,,,,Women,Male,0.0-19.0,,,0,12393,empathic,"<div style=""text-align: left;padding: 0 20vw;""><p style=""font-size:20px; color:black;""><p>Thanks for participating! In this study the task is framed either as a spatial task (which male participants typically perform better on) or a social task (which female participants typically perform better on). We are looking at the effect of gender bias in problem framing on performance. We ask that you please do not share this information with other potential participants. </p>",,,114566,,52,html-button-response,
337,Empathetic,True,social,,,,,Females,Male,0.0-0.0,,,,,empathetic,,True,,4517,,0,fullscreen,
337,Empathetic,True,social,,[],[],[],Females,Male,0.0-1.0,,,,,empathetic,,True,,131705,False,1,preload,
337,Empathetic,True,social,,,,,Females,Male,0.0-2.0,,,0,7462,empathetic,"<div style=""text-align: left;padding: 0 20vw;""><p style=""font-size:20px; color:black;""><p>By answering the following questions, you are participating in a study being performed by cognitive scientists in the Stanford Department of Psychology. </p><p>If you have questions about this research, please contact us at stanfordpsych251@gmail.com. </p><p>You must be at least 18 years old to participate. Your participation in this research is voluntary. You may decline to answer any or all of the following questions. You may decline further participation, at any time, without adverse consequences. </p><p>Your anonymity is assured; the researchers who have requested your participation will not receive any personal information about you.</p>",,,139168,,2,html-button-response,
337,Empathetic,True,social,,,,,Females,Male,0.0-3.0,,,0,2166,empathetic,"<div style=""text-align: left;padding: 0 20vw;""><p style=""font-size:20px; color:black;"">Our experiment is a task that tests your perspective taking ability.</p>",,,141335,,3,html-button-response,
337,Empathetic,True,social,,,,,Females,Male,0.0-4.0,,,0,4433,empathetic,"<div style=""text-align: left;padding: 0 20vw;""><p style=""font-size:20px; color:black;"">Perspective taking ability can be thought of as a measure of <strong>empathetic ability</strong>.</p>",,,145768,,4,html-button-response,
337,Empathetic,True,social,,,,,Females,Male,0.0-5.0,,,0,5340,empathetic,"<div style=""text-align: left;padding: 0 20vw;""><p style=""font-size:20px; color:black;""><p>Empathetic ability is a social ability that is defined as being able to identify with, and understand what another person is seeing or feeling, and respond appropriately.</p>",,,151109,,5,html-button-response,
337,Empathetic,True,social,,,,,Females,Male,0.0-6.0,,,0,4266,empathetic,"<div style=""text-align: left;padding: 0 20vw;""><p style=""font-size:20px; color:black;"">Previous studies have shown that <strong>females often score higher on measures of empathetic ability</strong>.</p>",,,155375,,6,html-button-response,
337,Empathetic,True,social,,,,,Females,Male,0.0-7.0,,,"{'first': 'Females', 'second': 'empathetic'}",37104,empathetic,,,,192479,,7,survey-html-form,
337,Empathetic,True,social,,,,,Females,Male,0.0-8.0,,,0,26931,empathetic,"'<div style=""text-align: left;padding: 0 20vw;""><p>In this test, you will be shown a map of a city with a path drawn through it. </p>
      <p>Imagine yourself taking the perspective of the person on the map. Suppose that one day, you went for walk and followed the path through the city that is shown. </p> 
      <p>At each turn that the path takes, 
      your task is to decide whether you would turn to your right or your left as you are walking. </p>
      <p>If it is a <strong> right turn</strong>, click on the <strong> right arrow key</strong>  on your keyboard,</p>
      <p>and if it is a <strong> left turn</strong>, click on the <strong> left arrow key</strong>  on your keyboard.</p>
      <p>You will first see three practice trials. </p>
      <p>Please do not turn your computer screen/head.</p>",,,219411,,8,html-button-response,
337,Empathetic,True,social,,,,,Females,Male,0.0-9.0,,,0,3974,empathetic,"<div style=""text-align: left;padding: 0 20vw;""><p style=""font-size:20px; color:black;"">You will first see three practice trials</p><p><p>If it is a <strong> right turn</strong>, click on the <strong> right arrow key</strong>  on your keyboard,</p><p>and if it is a <strong> left turn</strong>, click on the <strong> left arrow key</strong>  on your keyboard.</p> ",,,223385,,9,html-button-response,
337,Empathetic,True,social,,,,,Females,Male,0.0-10.0-0.0,,,arrowleft,2137,empathetic,img/social/version2/p1.png,,,225524,,10,image-keyboard-response,
337,Empathetic,True,social,,,,,Females,Male,0.0-10.0-1.0,,,arrowright,1055,empathetic,img/social/version2/p2.png,,,226579,,11,image-keyboard-response,
337,Empathetic,True,social,,,,,Females,Male,0.0-10.0-2.0,,,arrowright,680,empathetic,img/social/version2/p3.png,,,227260,,12,image-keyboard-response,
337,Empathetic,True,social,,,,,Females,Male,0.0-11.0,,,0,4173,empathetic,"<div style=""text-align: left;padding: 0 20vw;""><p style=""font-size:20px; color:black;""> Now, you will have 30 seconds to complete as many of the 32 trials as you can.",,,231433,,13,html-button-response,
337,Empathetic,True,social,True,,,,Females,Male,0.0-12.0-0.0,,,arrowleft,1403,empathetic,img/social/version2/1.png,,,232837,,14,image-keyboard-response,
337,Empathetic,True,social,True,,,,Females,Male,0.0-12.0-0.1,,,arrowleft,362,empathetic,img/social/version2/2.png,,,233200,,15,image-keyboard-response,
337,Empathetic,True,social,True,,,,Females,Male,0.0-12.0-0.2,,,arrowright,747,empathetic,img/social/version2/3.png,,,233948,,16,image-keyboard-response,
337,Empathetic,True,social,True,,,,Females,Male,0.0-12.0-0.3,,,arrowright,715,empathetic,img/social/version2/4.png,,,234663,,17,image-keyboard-response,
337,Empathetic,True,social,True,,,,Females,Male,0.0-12.0-0.4,,,arrowleft,683,empathetic,img/social/version2/5.png,,,235346,,18,image-keyboard-response,
337,Empathetic,True,social,True,,,,Females,Male,0.0-12.0-0.5,,,arrowleft,1813,empathetic,img/social/version2/6.png,,,237160,,19,image-keyboard-response,
337,Empathetic,True,social,True,,,,Females,Male,0.0-12.0-0.6,,,arrowright,780,empathetic,img/social/version2/7.png,,,237941,,20,image-keyboard-response,
337,Empathetic,True,social,True,,,,Females,Male,0.0-12.0-0.7,,,arrowright,968,empathetic,img/social/version2/8.png,,,238909,,21,image-keyboard-response,
337,Empathetic,True,social,True,,,,Females,Male,0.0-12.0-0.8,,,arrowright,583,empathetic,img/social/version2/9.png,,,239492,,22,image-keyboard-response,
337,Empathetic,True,social,True,,,,Females,Male,0.0-12.0-0.9,,,arrowleft,451,empathetic,img/social/version2/10.png,,,239943,,23,image-keyboard-response,
337,Empathetic,True,social,True,,,,Females,Male,0.0-12.0-0.10,,,arrowright,1023,empathetic,img/social/version2/11.png,,,240966,,24,image-keyboard-response,
337,Empathetic,True,social,True,,,,Females,Male,0.0-12.0-0.11,,,arrowleft,451,empathetic,img/social/version2/12.png,,,241418,,25,image-keyboard-response,
337,Empathetic,True,social,True,,,,Females,Male,0.0-12.0-0.12,,,arrowleft,1187,empathetic,img/social/version2/13.png,,,242605,,26,image-keyboard-response,
337,Empathetic,True,social,True,,,,Females,Male,0.0-12.0-0.13,,,arrowright,341,empathetic,img/social/version2/14.png,,,242947,,27,image-keyboard-response,
337,Empathetic,True,social,True,,,,Females,Male,0.0-12.0-0.14,,,arrowright,1682,empathetic,img/social/version2/15.png,,,244629,,28,image-keyboard-response,
337,Empathetic,True,social,True,,,,Females,Male,0.0-12.0-0.15,,,arrowleft,363,empathetic,img/social/version2/16.png,,,244992,,29,image-keyboard-response,
337,Empathetic,True,social,True,,,,Females,Male,0.0-12.0-0.16,,,arrowleft,880,empathetic,img/social/version2/17.png,,,245872,,30,image-keyboard-response,
337,Empathetic,True,social,True,,,,Females,Male,0.0-12.0-0.17,,,arrowright,451,empathetic,img/social/version2/18.png,,,246323,,31,image-keyboard-response,
337,Empathetic,True,social,True,,,,Females,Male,0.0-12.0-0.18,,,arrowright,538,empathetic,img/social/version2/19.png,,,246862,,32,image-keyboard-response,
337,Empathetic,True,social,True,,,,Females,Male,0.0-12.0-0.19,,,arrowleft,892,empathetic,img/social/version2/20.png,,,247754,,33,image-keyboard-response,
337,Empathetic,True,social,True,,,,Females,Male,0.0-12.0-0.20,,,arrowleft,659,empathetic,img/social/version2/21.png,,,248413,,34,image-keyboard-response,
337,Empathetic,True,social,True,,,,Females,Male,0.0-12.0-0.21,,,arrowleft,385,empathetic,img/social/version2/22.png,,,248798,,35,image-keyboard-response,
337,Empathetic,True,social,True,,,,Females,Male,0.0-12.0-0.22,,,arrowright,329,empathetic,img/social/version2/23.png,,,249128,,36,image-keyboard-response,
337,Empathetic,True,social,True,,,,Females,Male,0.0-12.0-0.23,,,arrowright,319,empathetic,img/social/version2/24.png,,,249447,,37,image-keyboard-response,
337,Empathetic,True,social,True,,,,Females,Male,0.0-12.0-0.24,,,arrowleft,1033,empathetic,img/social/version2/25.png,,,250481,,38,image-keyboard-response,
337,Empathetic,True,social,True,,,,Females,Male,0.0-12.0-0.25,,,arrowleft,505,empathetic,img/social/version2/26.png,,,250987,,39,image-keyboard-response,
337,Empathetic,True,social,True,,,,Females,Male,0.0-12.0-0.26,,,arrowleft,527,empathetic,img/social/version2/27.png,,,251515,,40,image-keyboard-response,
337,Empathetic,True,social,True,,,,Females,Male,0.0-12.0-0.27,,,arrowright,549,empathetic,img/social/version2/28.png,,,252065,,41,image-keyboard-response,
337,Empathetic,True,social,True,,,,Females,Male,0.0-12.0-0.28,,,arrowright,429,empathetic,img/social/version2/29.png,,,252494,,42,image-keyboard-response,
337,Empathetic,True,social,True,,,,Females,Male,0.0-12.0-0.29,,,arrowleft,340,empathetic,img/social/version2/30.png,,,252835,,43,image-keyboard-response,
337,Empathetic,True,social,True,,,,Females,Male,0.0-12.0-0.30,,,arrowright,363,empathetic,img/social/version2/31.png,,,253198,,44,image-keyboard-response,
337,Empathetic,True,social,True,,,,Females,Male,0.0-12.0-0.31,,,arrowright,626,empathetic,img/social/version2/32.png,,,253825,,45,image-keyboard-response,
337,Empathetic,True,social,,,,,Females,Male,0.0-13.0,,,0,2776,empathetic,"<p style=""font-size:20px; color:black;""><p>You have finished the task - thanks for participating! A few more questions before you go. </p>",,,256602,,46,html-button-response,
337,Empathetic,True,social,,,,,Females,Male,0.0-14.0,,,{'Hypothesis': ''},60268,empathetic,,,,316872,,47,survey-text,
337,Empathetic,True,social,,,,,Females,Male,0.0-15.0,,[0],{'sex': 'Male'},2064,empathetic,,,,318937,,48,survey-multi-choice,
337,Empathetic,True,social,,,,,Females,Male,0.0-16.0,,[0],{'q2': 'empathetic ability'},6497,empathetic,,,,325436,,49,survey-multi-choice,
337,Empathetic,True,social,,,,,Females,Male,0.0-17.0,,[0],{'q3': 'Females'},5502,empathetic,,,,330940,,50,survey-multi-choice,
337,Empathetic,True,social,,,,,Females,Male,0.0-18.0,,,{'technicalDifficulties': ''},3515,empathetic,,,,334457,,51,survey-text,
337,Empathetic,True,social,,,,,Females,Male,0.0-19.0,,,0,2075,empathetic,"<div style=""text-align: left;padding: 0 20vw;""><p style=""font-size:20px; color:black;""><p>Thanks for participating! In this study the task is framed either as a spatial task (which male participants typically perform better on) or a social task (which female participants typically perform better on). We are looking at the effect of gender bias in problem framing on performance. We ask that you please do not share this information with other potential participants. </p>",,,336532,,52,html-button-response,
64,Empathetic,True,social,,,,,Females,Male,0.0-0.0,Accuracy of pressing the right keys to get to the end,,,,empathetic,,True,,1957,,0,fullscreen,
64,Empathetic,True,social,,[],[],[],Females,Male,0.0-1.0,Accuracy of pressing the right keys to get to the end,,,,empathetic,,True,,2199,False,1,preload,
64,Empathetic,True,social,,,,,Females,Male,0.0-2.0,Accuracy of pressing the right keys to get to the end,,0,1529,empathetic,"<div style=""text-align: left;padding: 0 20vw;""><p style=""font-size:20px; color:black;""><p>By answering the following questions, you are participating in a study being performed by cognitive scientists in the Stanford Department of Psychology. </p><p>If you have questions about this research, please contact us at stanfordpsych251@gmail.com. </p><p>You must be at least 18 years old to participate. Your participation in this research is voluntary. You may decline to answer any or all of the following questions. You may decline further participation, at any time, without adverse consequences. </p><p>Your anonymity is assured; the researchers who have requested your participation will not receive any personal information about you.</p>",,,3729,,2,html-button-response,
64,Empathetic,True,social,,,,,Females,Male,0.0-3.0,Accuracy of pressing the right keys to get to the end,,0,1017,empathetic,"<div style=""text-align: left;padding: 0 20vw;""><p style=""font-size:20px; color:black;"">Our experiment is a task that tests your perspective taking ability.</p>",,,4747,,3,html-button-response,
64,Empathetic,True,social,,,,,Females,Male,0.0-4.0,Accuracy of pressing the right keys to get to the end,,0,4425,empathetic,"<div style=""text-align: left;padding: 0 20vw;""><p style=""font-size:20px; color:black;"">Perspective taking ability can be thought of as a measure of <strong>empathetic ability</strong>.</p>",,,9173,,4,html-button-response,
64,Empathetic,True,social,,,,,Females,Male,0.0-5.0,Accuracy of pressing the right keys to get to the end,,0,6239,empathetic,"<div style=""text-align: left;padding: 0 20vw;""><p style=""font-size:20px; color:black;""><p>Empathetic ability is a social ability that is defined as being able to identify with, and understand what another person is seeing or feeling, and respond appropriately.</p>",,,15413,,5,html-button-response,
64,Empathetic,True,social,,,,,Females,Male,0.0-6.0,Accuracy of pressing the right keys to get to the end,,0,1394,empathetic,"<div style=""text-align: left;padding: 0 20vw;""><p style=""font-size:20px; color:black;"">Previous studies have shown that <strong>females often score higher on measures of empathetic ability</strong>.</p>",,,16807,,6,html-button-response,
64,Empathetic,True,social,,,,,Females,Male,0.0-7.0,Accuracy of pressing the right keys to get to the end,,"{'first': 'Females', 'second': 'empathetic'}",15213,empathetic,,,,32021,,7,survey-html-form,
64,Empathetic,True,social,,,,,Females,Male,0.0-8.0,Accuracy of pressing the right keys to get to the end,,0,12948,empathetic,"'<div style=""text-align: left;padding: 0 20vw;""><p>In this test, you will be shown a map of a city with a path drawn through it. </p>
      <p>Imagine yourself taking the perspective of the person on the map. Suppose that one day, you went for walk and followed the path through the city that is shown. </p> 
      <p>At each turn that the path takes, 
      your task is to decide whether you would turn to your right or your left as you are walking. </p>
      <p>If it is a <strong> right turn</strong>, click on the <strong> right arrow key</strong>  on your keyboard,</p>
      <p>and if it is a <strong> left turn</strong>, click on the <strong> left arrow key</strong>  on your keyboard.</p>
      <p>You will first see three practice trials. </p>
      <p>Please do not turn your computer screen/head.</p>",,,44970,,8,html-button-response,
64,Empathetic,True,social,,,,,Females,Male,0.0-9.0,Accuracy of pressing the right keys to get to the end,,0,1886,empathetic,"<div style=""text-align: left;padding: 0 20vw;""><p style=""font-size:20px; color:black;"">You will first see three practice trials</p><p><p>If it is a <strong> right turn</strong>, click on the <strong> right arrow key</strong>  on your keyboard,</p><p>and if it is a <strong> left turn</strong>, click on the <strong> left arrow key</strong>  on your keyboard.</p> ",,,46856,,9,html-button-response,
64,Empathetic,True,social,,,,,Females,Male,0.0-10.0-0.0,Accuracy of pressing the right keys to get to the end,,arrowleft,6020,empathetic,img/social/version2/p1.png,,,52878,,10,image-keyboard-response,
64,Empathetic,True,social,,,,,Females,Male,0.0-10.0-1.0,Accuracy of pressing the right keys to get to the end,,arrowright,1349,empathetic,img/social/version2/p2.png,,,54228,,11,image-keyboard-response,
64,Empathetic,True,social,,,,,Females,Male,0.0-10.0-2.0,Accuracy of pressing the right keys to get to the end,,arrowright,494,empathetic,img/social/version2/p3.png,,,54723,,12,image-keyboard-response,
64,Empathetic,True,social,,,,,Females,Male,0.0-11.0,Accuracy of pressing the right keys to get to the end,,0,2036,empathetic,"<div style=""text-align: left;padding: 0 20vw;""><p style=""font-size:20px; color:black;""> Now, you will have 30 seconds to complete as many of the 32 trials as you can.",,,56759,,13,html-button-response,
64,Empathetic,True,social,True,,,,Females,Male,0.0-12.0-0.0,Accuracy of pressing the right keys to get to the end,,arrowleft,1451,empathetic,img/social/version2/1.png,,,58211,,14,image-keyboard-response,
64,Empathetic,True,social,True,,,,Females,Male,0.0-12.0-0.1,Accuracy of pressing the right keys to get to the end,,arrowleft,849,empathetic,img/social/version2/2.png,,,59062,,15,image-keyboard-response,
64,Empathetic,True,social,True,,,,Females,Male,0.0-12.0-0.2,Accuracy of pressing the right keys to get to the end,,arrowright,696,empathetic,img/social/version2/3.png,,,59758,,16,image-keyboard-response,
64,Empathetic,True,social,True,,,,Females,Male,0.0-12.0-0.3,Accuracy of pressing the right keys to get to the end,,arrowright,728,empathetic,img/social/version2/4.png,,,60487,,17,image-keyboard-response,
64,Empathetic,True,social,True,,,,Females,Male,0.0-12.0-0.4,Accuracy of pressing the right keys to get to the end,,arrowleft,1000,empathetic,img/social/version2/5.png,,,61488,,18,image-keyboard-response,
64,Empathetic,True,social,True,,,,Females,Male,0.0-12.0-0.5,Accuracy of pressing the right keys to get to the end,,arrowleft,3442,empathetic,img/social/version2/6.png,,,64932,,19,image-keyboard-response,
64,Empathetic,True,social,True,,,,Females,Male,0.0-12.0-0.6,Accuracy of pressing the right keys to get to the end,,arrowright,631,empathetic,img/social/version2/7.png,,,65563,,20,image-keyboard-response,
64,Empathetic,True,social,True,,,,Females,Male,0.0-12.0-0.7,Accuracy of pressing the right keys to get to the end,,arrowright,459,empathetic,img/social/version2/8.png,,,66023,,21,image-keyboard-response,
64,Empathetic,True,social,True,,,,Females,Male,0.0-12.0-0.8,Accuracy of pressing the right keys to get to the end,,arrowright,430,empathetic,img/social/version2/9.png,,,66453,,22,image-keyboard-response,
64,Empathetic,True,social,True,,,,Females,Male,0.0-12.0-0.9,Accuracy of pressing the right keys to get to the end,,arrowleft,480,empathetic,img/social/version2/10.png,,,66934,,23,image-keyboard-response,
64,Empathetic,True,social,False,,,,Females,Male,0.0-12.0-0.10,Accuracy of pressing the right keys to get to the end,,arrowleft,504,empathetic,img/social/version2/11.png,,,67439,,24,image-keyboard-response,
64,Empathetic,True,social,True,,,,Females,Male,0.0-12.0-0.11,Accuracy of pressing the right keys to get to the end,,arrowleft,582,empathetic,img/social/version2/12.png,,,68022,,25,image-keyboard-response,
64,Empathetic,True,social,True,,,,Females,Male,0.0-12.0-0.12,Accuracy of pressing the right keys to get to the end,,arrowleft,550,empathetic,img/social/version2/13.png,,,68572,,26,image-keyboard-response,
64,Empathetic,True,social,True,,,,Females,Male,0.0-12.0-0.13,Accuracy of pressing the right keys to get to the end,,arrowright,555,empathetic,img/social/version2/14.png,,,69128,,27,image-keyboard-response,
64,Empathetic,True,social,True,,,,Females,Male,0.0-12.0-0.14,Accuracy of pressing the right keys to get to the end,,arrowright,1071,empathetic,img/social/version2/15.png,,,70201,,28,image-keyboard-response,
64,Empathetic,True,social,True,,,,Females,Male,0.0-12.0-0.15,Accuracy of pressing the right keys to get to the end,,arrowleft,353,empathetic,img/social/version2/16.png,,,70554,,29,image-keyboard-response,
64,Empathetic,True,social,True,,,,Females,Male,0.0-12.0-0.16,Accuracy of pressing the right keys to get to the end,,arrowleft,929,empathetic,img/social/version2/17.png,,,71484,,30,image-keyboard-response,
64,Empathetic,True,social,True,,,,Females,Male,0.0-12.0-0.17,Accuracy of pressing the right keys to get to the end,,arrowright,323,empathetic,img/social/version2/18.png,,,71808,,31,image-keyboard-response,
64,Empathetic,True,social,True,,,,Females,Male,0.0-12.0-0.18,Accuracy of pressing the right keys to get to the end,,arrowright,520,empathetic,img/social/version2/19.png,,,72329,,32,image-keyboard-response,
64,Empathetic,True,social,True,,,,Females,Male,0.0-12.0-0.19,Accuracy of pressing the right keys to get to the end,,arrowleft,293,empathetic,img/social/version2/20.png,,,72622,,33,image-keyboard-response,
64,Empathetic,True,social,True,,,,Females,Male,0.0-12.0-0.20,Accuracy of pressing the right keys to get to the end,,arrowleft,459,empathetic,img/social/version2/21.png,,,73082,,34,image-keyboard-response,
64,Empathetic,True,social,True,,,,Females,Male,0.0-12.0-0.21,Accuracy of pressing the right keys to get to the end,,arrowleft,930,empathetic,img/social/version2/22.png,,,74013,,35,image-keyboard-response,
64,Empathetic,True,social,True,,,,Females,Male,0.0-12.0-0.22,Accuracy of pressing the right keys to get to the end,,arrowright,317,empathetic,img/social/version2/23.png,,,74331,,36,image-keyboard-response,
64,Empathetic,True,social,True,,,,Females,Male,0.0-12.0-0.23,Accuracy of pressing the right keys to get to the end,,arrowright,455,empathetic,img/social/version2/24.png,,,74786,,37,image-keyboard-response,
64,Empathetic,True,social,False,,,,Females,Male,0.0-12.0-0.24,Accuracy of pressing the right keys to get to the end,,arrowright,1643,empathetic,img/social/version2/25.png,,,76431,,38,image-keyboard-response,
64,Empathetic,True,social,True,,,,Females,Male,0.0-12.0-0.25,Accuracy of pressing the right keys to get to the end,,arrowleft,1971,empathetic,img/social/version2/26.png,,,78403,,39,image-keyboard-response,
64,Empathetic,True,social,True,,,,Females,Male,0.0-12.0-0.26,Accuracy of pressing the right keys to get to the end,,arrowleft,1231,empathetic,img/social/version2/27.png,,,79635,,40,image-keyboard-response,
64,Empathetic,True,social,True,,,,Females,Male,0.0-12.0-0.27,Accuracy of pressing the right keys to get to the end,,arrowright,911,empathetic,img/social/version2/28.png,,,80546,,41,image-keyboard-response,
64,Empathetic,True,social,True,,,,Females,Male,0.0-12.0-0.28,Accuracy of pressing the right keys to get to the end,,arrowright,570,empathetic,img/social/version2/29.png,,,81118,,42,image-keyboard-response,
64,Empathetic,True,social,True,,,,Females,Male,0.0-12.0-0.29,Accuracy of pressing the right keys to get to the end,,arrowleft,397,empathetic,img/social/version2/30.png,,,81516,,43,image-keyboard-response,
64,Empathetic,True,social,True,,,,Females,Male,0.0-12.0-0.30,Accuracy of pressing the right keys to get to the end,,arrowright,318,empathetic,img/social/version2/31.png,,,81835,,44,image-keyboard-response,
64,Empathetic,True,social,True,,,,Females,Male,0.0-12.0-0.31,Accuracy of pressing the right keys to get to the end,,arrowright,429,empathetic,img/social/version2/32.png,,,82265,,45,image-keyboard-response,
64,Empathetic,True,social,,,,,Females,Male,0.0-13.0,Accuracy of pressing the right keys to get to the end,,0,2789,empathetic,"<p style=""font-size:20px; color:black;""><p>You have finished the task - thanks for participating! A few more questions before you go. </p>",,,85055,,46,html-button-response,
64,Empathetic,True,social,,,,,Females,Male,0.0-14.0,Accuracy of pressing the right keys to get to the end,,{'Hypothesis': 'Accuracy of pressing the right keys to get to the end'},45782,empathetic,,,,130840,,47,survey-text,
64,Empathetic,True,social,,,,,Females,Male,0.0-15.0,Accuracy of pressing the right keys to get to the end,[0],{'sex': 'Male'},3627,empathetic,,,,134468,,48,survey-multi-choice,
64,Empathetic,True,social,,,,,Females,Male,0.0-16.0,Accuracy of pressing the right keys to get to the end,[0],{'q2': 'empathetic ability'},26698,empathetic,,,,161168,,49,survey-multi-choice,
64,Empathetic,True,social,,,,,Females,Male,0.0-17.0,Accuracy of pressing the right keys to get to the end,[0],{'q3': 'Females'},2606,empathetic,,,,163776,,50,survey-multi-choice,
64,Empathetic,True,social,,,,,Females,Male,0.0-18.0,Accuracy of pressing the right keys to get to the end,,{'technicalDifficulties': ''},2404,empathetic,,,,166184,,51,survey-text,
64,Empathetic,True,social,,,,,Females,Male,0.0-19.0,Accuracy of pressing the right keys to get to the end,,0,4641,empathetic,"<div style=""text-align: left;padding: 0 20vw;""><p style=""font-size:20px; color:black;""><p>Thanks for participating! In this study the task is framed either as a spatial task (which male participants typically perform better on) or a social task (which female participants typically perform better on). We are looking at the effect of gender bias in problem framing on performance. We ask that you please do not share this information with other potential participants. </p>",,,170825,,52,html-button-response,
62,Empathetic,True,spatial,,,,,males,Male,0.0-0.0,No clue.,,,,spatial,,True,,2524,,0,fullscreen,
62,Empathetic,True,spatial,,[],[],[],males,Male,0.0-1.0,No clue.,,,,spatial,,True,,6077,False,1,preload,
62,Empathetic,True,spatial,,,,,males,Male,0.0-2.0,No clue.,,0,1988,spatial,"<div style=""text-align: left;padding: 0 20vw;""><p style=""font-size:20px; color:black;""><p>By answering the following questions, you are participating in a study being performed by cognitive scientists in the Stanford Department of Psychology. </p><p>If you have questions about this research, please contact us at stanfordpsych251@gmail.com. </p><p>You must be at least 18 years old to participate. Your participation in this research is voluntary. You may decline to answer any or all of the following questions. You may decline further participation, at any time, without adverse consequences. </p><p>Your anonymity is assured; the researchers who have requested your participation will not receive any personal information about you.</p>",,,8066,,2,html-button-response,
62,Empathetic,True,spatial,,,,,males,Male,0.0-3.0,No clue.,,0,2760,spatial,"<div style=""text-align: left;padding: 0 20vw;""><p style=""font-size:20px; color:black;"">Our experiment is a task that tests your perspective taking ability.</p>",,,10828,,3,html-button-response,
62,Empathetic,True,spatial,,,,,males,Male,0.0-4.0,No clue.,,0,4015,spatial,"<div style=""text-align: left;padding: 0 20vw;""><p style=""font-size:20px; color:black;"">Perspective taking ability can be thought of as a measure of <strong>spatial ability</strong>.</p>",,,14845,,4,html-button-response,
62,Empathetic,True,spatial,,,,,males,Male,0.0-5.0,No clue.,,0,6662,spatial,"<div style=""text-align: left;padding: 0 20vw;""><p style=""font-size:20px; color:black;""><p>Spatial ability is a cognitive ability that is defined as understanding the relations between objects in space and being able to mentally manipulate them and respond correctly.</p>",,,21507,,5,html-button-response,
62,Empathetic,True,spatial,,,,,males,Male,0.0-6.0,No clue.,,0,5342,spatial,"<div style=""text-align: left;padding: 0 20vw;""><p style=""font-size:20px; color:black;"">Previous studies have shown that <strong>males often score higher on measures of spatial ability</strong>.</p>",,,26849,,6,html-button-response,
62,Empathetic,True,spatial,,,,,males,Male,0.0-7.0,No clue.,,"{'first': 'males', 'second': 'spatial'}",20415,spatial,,,,47265,,7,survey-html-form,
62,Empathetic,True,spatial,,,,,males,Male,0.0-8.0,No clue.,,0,56151,spatial,"<div style=""text-align: left;padding: 0 20vw;""><p>In this test, you will be shown a map of a city with a path drawn through it. </p>
      <p>Imagine yourself taking a walk through the path, following the direction of the dashed line.</p> 
      <p>At each turn that the path takes, which will be circled, 
      your task is to decide whether you would turn to your right or your left as you are walking. </p>
      <p>If it is a <strong> right turn</strong>, click on the <strong> right arrow key</strong>  on your keyboard,</p>
      <p>and if it is a <strong> left turn</strong>, click on the <strong> left arrow key</strong>  on your keyboard.</p>
      <p>You will first see three practice trials. </p>
      <p>Please do not turn your computer screen/head.</p>",,,103418,,8,html-button-response,
62,Empathetic,True,spatial,,,,,males,Male,0.0-9.0,No clue.,,0,6069,spatial,"<div style=""text-align: left;padding: 0 20vw;""><p style=""font-size:20px; color:black;"">You will first see three practice trials</p><p><p>If it is a <strong> right turn</strong>, click on the <strong> right arrow key</strong>  on your keyboard,</p><p>and if it is a <strong> left turn</strong>, click on the <strong> left arrow key</strong>  on your keyboard.</p> ",,,109488,,9,html-button-response,
62,Empathetic,True,spatial,,,,,males,Male,0.0-10.0-0.0,No clue.,,arrowleft,2452,spatial,img/spatial/version2/p1.png,,,111943,,10,image-keyboard-response,
62,Empathetic,True,spatial,,,,,males,Male,0.0-10.0-1.0,No clue.,,arrowright,612,spatial,img/spatial/version2/p2.png,,,112555,,11,image-keyboard-response,
62,Empathetic,True,spatial,,,,,males,Male,0.0-10.0-2.0,No clue.,,arrowright,565,spatial,img/spatial/version2/p3.png,,,113122,,12,image-keyboard-response,
62,Empathetic,True,spatial,,,,,males,Male,0.0-11.0,No clue.,,0,1782,spatial,"<div style=""text-align: left;padding: 0 20vw;""><p style=""font-size:20px; color:black;""> Now, you will have 30 seconds to complete as many of the 32 trials as you can.",,,114904,,13,html-button-response,
62,Empathetic,True,spatial,True,,,,males,Male,0.0-12.0-0.0,No clue.,,arrowleft,1548,spatial,img/spatial/version2/1.png,,,116453,,14,image-keyboard-response,
62,Empathetic,True,spatial,True,,,,males,Male,0.0-12.0-0.1,No clue.,,arrowleft,408,spatial,img/spatial/version2/2.png,,,116863,,15,image-keyboard-response,
62,Empathetic,True,spatial,True,,,,males,Male,0.0-12.0-0.2,No clue.,,arrowright,359,spatial,img/spatial/version2/3.png,,,117224,,16,image-keyboard-response,
62,Empathetic,True,spatial,True,,,,males,Male,0.0-12.0-0.3,No clue.,,arrowright,520,spatial,img/spatial/version2/4.png,,,117744,,17,image-keyboard-response,
62,Empathetic,True,spatial,True,,,,males,Male,0.0-12.0-0.4,No clue.,,arrowleft,323,spatial,img/spatial/version2/5.png,,,118069,,18,image-keyboard-response,
62,Empathetic,True,spatial,True,,,,males,Male,0.0-12.0-0.5,No clue.,,arrowleft,1479,spatial,img/spatial/version2/6.png,,,119550,,19,image-keyboard-response,
62,Empathetic,True,spatial,True,,,,males,Male,0.0-12.0-0.6,No clue.,,arrowright,1527,spatial,img/spatial/version2/7.png,,,121078,,20,image-keyboard-response,
62,Empathetic,True,spatial,True,,,,males,Male,0.0-12.0-0.7,No clue.,,arrowright,765,spatial,img/spatial/version2/8.png,,,121844,,21,image-keyboard-response,
62,Empathetic,True,spatial,True,,,,males,Male,0.0-12.0-0.8,No clue.,,arrowright,1162,spatial,img/spatial/version2/9.png,,,123006,,22,image-keyboard-response,
62,Empathetic,True,spatial,True,,,,males,Male,0.0-12.0-0.9,No clue.,,arrowleft,632,spatial,img/spatial/version2/10.png,,,123639,,23,image-keyboard-response,
62,Empathetic,True,spatial,True,,,,males,Male,0.0-12.0-0.10,No clue.,,arrowright,598,spatial,img/spatial/version2/11.png,,,124237,,24,image-keyboard-response,
62,Empathetic,True,spatial,True,,,,males,Male,0.0-12.0-0.11,No clue.,,arrowleft,616,spatial,img/spatial/version2/12.png,,,124854,,25,image-keyboard-response,
62,Empathetic,True,spatial,True,,,,males,Male,0.0-12.0-0.12,No clue.,,arrowleft,663,spatial,img/spatial/version2/13.png,,,125518,,26,image-keyboard-response,
62,Empathetic,True,spatial,True,,,,males,Male,0.0-12.0-0.13,No clue.,,arrowright,1334,spatial,img/spatial/version2/14.png,,,126853,,27,image-keyboard-response,
62,Empathetic,True,spatial,True,,,,males,Male,0.0-12.0-0.14,No clue.,,arrowright,1810,spatial,img/spatial/version2/15.png,,,128663,,28,image-keyboard-response,
62,Empathetic,True,spatial,True,,,,males,Male,0.0-12.0-0.15,No clue.,,arrowleft,976,spatial,img/spatial/version2/16.png,,,129641,,29,image-keyboard-response,
62,Empathetic,True,spatial,True,,,,males,Male,0.0-12.0-0.16,No clue.,,arrowleft,1049,spatial,img/spatial/version2/17.png,,,130690,,30,image-keyboard-response,
62,Empathetic,True,spatial,True,,,,males,Male,0.0-12.0-0.17,No clue.,,arrowright,481,spatial,img/spatial/version2/18.png,,,131173,,31,image-keyboard-response,
62,Empathetic,True,spatial,True,,,,males,Male,0.0-12.0-0.18,No clue.,,arrowright,967,spatial,img/spatial/version2/19.png,,,132140,,32,image-keyboard-response,
62,Empathetic,True,spatial,True,,,,males,Male,0.0-12.0-0.19,No clue.,,arrowleft,467,spatial,img/spatial/version2/20.png,,,132609,,33,image-keyboard-response,
62,Empathetic,True,spatial,True,,,,males,Male,0.0-12.0-0.20,No clue.,,arrowleft,308,spatial,img/spatial/version2/21.png,,,132918,,34,image-keyboard-response,
62,Empathetic,True,spatial,True,,,,males,Male,0.0-12.0-0.21,No clue.,,arrowleft,357,spatial,img/spatial/version2/22.png,,,133275,,35,image-keyboard-response,
62,Empathetic,True,spatial,True,,,,males,Male,0.0-12.0-0.22,No clue.,,arrowright,336,spatial,img/spatial/version2/23.png,,,133612,,36,image-keyboard-response,
62,Empathetic,True,spatial,True,,,,males,Male,0.0-12.0-0.23,No clue.,,arrowright,509,spatial,img/spatial/version2/24.png,,,134123,,37,image-keyboard-response,
62,Empathetic,True,spatial,True,,,,males,Male,0.0-12.0-0.24,No clue.,,arrowleft,1372,spatial,img/spatial/version2/25.png,,,135496,,38,image-keyboard-response,
62,Empathetic,True,spatial,True,,,,males,Male,0.0-12.0-0.25,No clue.,,arrowleft,632,spatial,img/spatial/version2/26.png,,,136128,,39,image-keyboard-response,
62,Empathetic,True,spatial,True,,,,males,Male,0.0-12.0-0.26,No clue.,,arrowleft,1450,spatial,img/spatial/version2/27.png,,,137578,,40,image-keyboard-response,
62,Empathetic,True,spatial,True,,,,males,Male,0.0-12.0-0.27,No clue.,,arrowright,1002,spatial,img/spatial/version2/28.png,,,138580,,41,image-keyboard-response,
62,Empathetic,True,spatial,True,,,,males,Male,0.0-12.0-0.28,No clue.,,arrowright,744,spatial,img/spatial/version2/29.png,,,139325,,42,image-keyboard-response,
62,Empathetic,True,spatial,True,,,,males,Male,0.0-12.0-0.29,No clue.,,arrowleft,495,spatial,img/spatial/version2/30.png,,,139821,,43,image-keyboard-response,
62,Empathetic,True,spatial,True,,,,males,Male,0.0-12.0-0.30,No clue.,,arrowright,490,spatial,img/spatial/version2/31.png,,,140312,,44,image-keyboard-response,
62,Empathetic,True,spatial,True,,,,males,Male,0.0-12.0-0.31,No clue.,,arrowright,1072,spatial,img/spatial/version2/32.png,,,141384,,45,image-keyboard-response,
62,Empathetic,True,spatial,,,,,males,Male,0.0-13.0,No clue.,,0,2466,spatial,"<div style=""text-align: left;padding: 0 20vw;""><p style=""font-size:20px; color:black;""><p>You have finished the task - thanks for participating! A few more questions before you go. </p>",,,143851,,46,html-button-response,
62,Empathetic,True,spatial,,,,,males,Male,0.0-14.0,No clue.,,{'Hypothesis': 'No clue.'},36181,spatial,,,,180035,,47,survey-text,
62,Empathetic,True,spatial,,,,,males,Male,0.0-15.0,No clue.,[0],{'sex': 'Male'},2194,spatial,,,,182231,,48,survey-multi-choice,
62,Empathetic,True,spatial,,,,,males,Male,0.0-16.0,No clue.,[0],{'q2': 'spatial ability'},27045,spatial,,,,209279,,49,survey-multi-choice,
62,Empathetic,True,spatial,,,,,males,Male,0.0-17.0,No clue.,[0],{'q3': 'Males'},2521,spatial,,,,211804,,50,survey-multi-choice,
62,Empathetic,True,spatial,,,,,males,Male,0.0-18.0,No clue.,,{'technicalDifficulties': ''},3710,spatial,,,,215520,,51,survey-text,
62,Empathetic,True,spatial,,,,,males,Male,0.0-19.0,No clue.,,0,789,spatial,"<div style=""text-align: left;padding: 0 20vw;""><p style=""font-size:20px; color:black;""><p>Thanks for participating! In this study the task is framed either as a spatial task (which male participants typically perform better on) or a social task (which female participants typically perform better on). We are looking at the effect of gender bias in problem framing on performance. We ask that you please do not share this information with other potential participants. </p>",,,216311,,52,html-button-response,
57,Empathetic,True,social,,,,,females,Male,0.0-0.0,"I do not currently understand the goals of the study, my best guess is that it might be something related to how good somebody is able to shift their perspective depending on different demograpgic metrics",,,,empathy,,True,no,4191,,0,fullscreen,
57,Empathetic,True,social,,[],[],[],females,Male,0.0-1.0,"I do not currently understand the goals of the study, my best guess is that it might be something related to how good somebody is able to shift their perspective depending on different demograpgic metrics",,,,empathy,,True,no,5484,False,1,preload,
57,Empathetic,True,social,,,,,females,Male,0.0-2.0,"I do not currently understand the goals of the study, my best guess is that it might be something related to how good somebody is able to shift their perspective depending on different demograpgic metrics",,0,7737,empathy,"<div style=""text-align: left;padding: 0 20vw;""><p style=""font-size:20px; color:black;""><p>By answering the following questions, you are participating in a study being performed by cognitive scientists in the Stanford Department of Psychology. </p><p>If you have questions about this research, please contact us at stanfordpsych251@gmail.com. </p><p>You must be at least 18 years old to participate. Your participation in this research is voluntary. You may decline to answer any or all of the following questions. You may decline further participation, at any time, without adverse consequences. </p><p>Your anonymity is assured; the researchers who have requested your participation will not receive any personal information about you.</p>",,no,13222,,2,html-button-response,
57,Empathetic,True,social,,,,,females,Male,0.0-3.0,"I do not currently understand the goals of the study, my best guess is that it might be something related to how good somebody is able to shift their perspective depending on different demograpgic metrics",,0,1735,empathy,"<div style=""text-align: left;padding: 0 20vw;""><p style=""font-size:20px; color:black;"">Our experiment is a task that tests your perspective taking ability.</p>",,no,14958,,3,html-button-response,
57,Empathetic,True,social,,,,,females,Male,0.0-4.0,"I do not currently understand the goals of the study, my best guess is that it might be something related to how good somebody is able to shift their perspective depending on different demograpgic metrics",,0,2184,empathy,"<div style=""text-align: left;padding: 0 20vw;""><p style=""font-size:20px; color:black;"">Perspective taking ability can be thought of as a measure of <strong>empathetic ability</strong>.</p>",,no,17142,,4,html-button-response,
57,Empathetic,True,social,,,,,females,Male,0.0-5.0,"I do not currently understand the goals of the study, my best guess is that it might be something related to how good somebody is able to shift their perspective depending on different demograpgic metrics",,0,2207,empathy,"<div style=""text-align: left;padding: 0 20vw;""><p style=""font-size:20px; color:black;""><p>Empathetic ability is a social ability that is defined as being able to identify with, and understand what another person is seeing or feeling, and respond appropriately.</p>",,no,19350,,5,html-button-response,
57,Empathetic,True,social,,,,,females,Male,0.0-6.0,"I do not currently understand the goals of the study, my best guess is that it might be something related to how good somebody is able to shift their perspective depending on different demograpgic metrics",,0,2482,empathy,"<div style=""text-align: left;padding: 0 20vw;""><p style=""font-size:20px; color:black;"">Previous studies have shown that <strong>females often score higher on measures of empathetic ability</strong>.</p>",,no,21832,,6,html-button-response,
57,Empathetic,True,social,,,,,females,Male,0.0-7.0,"I do not currently understand the goals of the study, my best guess is that it might be something related to how good somebody is able to shift their perspective depending on different demograpgic metrics",,"{'first': 'females', 'second': 'empathy'}",22161,empathy,,,no,43994,,7,survey-html-form,
57,Empathetic,True,social,,,,,females,Male,0.0-8.0,"I do not currently understand the goals of the study, my best guess is that it might be something related to how good somebody is able to shift their perspective depending on different demograpgic metrics",,0,20563,empathy,"'<div style=""text-align: left;padding: 0 20vw;""><p>In this test, you will be shown a map of a city with a path drawn through it. </p>
      <p>Imagine yourself taking the perspective of the person on the map. Suppose that one day, you went for walk and followed the path through the city that is shown. </p> 
      <p>At each turn that the path takes, 
      your task is to decide whether you would turn to your right or your left as you are walking. </p>
      <p>If it is a <strong> right turn</strong>, click on the <strong> right arrow key</strong>  on your keyboard,</p>
      <p>and if it is a <strong> left turn</strong>, click on the <strong> left arrow key</strong>  on your keyboard.</p>
      <p>You will first see three practice trials. </p>
      <p>Please do not turn your computer screen/head.</p>",,no,64558,,8,html-button-response,
57,Empathetic,True,social,,,,,females,Male,0.0-9.0,"I do not currently understand the goals of the study, my best guess is that it might be something related to how good somebody is able to shift their perspective depending on different demograpgic metrics",,0,4193,empathy,"<div style=""text-align: left;padding: 0 20vw;""><p style=""font-size:20px; color:black;"">You will first see three practice trials</p><p><p>If it is a <strong> right turn</strong>, click on the <strong> right arrow key</strong>  on your keyboard,</p><p>and if it is a <strong> left turn</strong>, click on the <strong> left arrow key</strong>  on your keyboard.</p> ",,no,68752,,9,html-button-response,
57,Empathetic,True,social,,,,,females,Male,0.0-10.0-0.0,"I do not currently understand the goals of the study, my best guess is that it might be something related to how good somebody is able to shift their perspective depending on different demograpgic metrics",,arrowleft,5696,empathy,img/social/version2/p1.png,,no,74450,,10,image-keyboard-response,
57,Empathetic,True,social,,,,,females,Male,0.0-10.0-1.0,"I do not currently understand the goals of the study, my best guess is that it might be something related to how good somebody is able to shift their perspective depending on different demograpgic metrics",,arrowright,1687,empathy,img/social/version2/p2.png,,no,76138,,11,image-keyboard-response,
57,Empathetic,True,social,,,,,females,Male,0.0-10.0-2.0,"I do not currently understand the goals of the study, my best guess is that it might be something related to how good somebody is able to shift their perspective depending on different demograpgic metrics",,arrowright,873,empathy,img/social/version2/p3.png,,no,77012,,12,image-keyboard-response,
57,Empathetic,True,social,,,,,females,Male,0.0-11.0,"I do not currently understand the goals of the study, my best guess is that it might be something related to how good somebody is able to shift their perspective depending on different demograpgic metrics",,0,5268,empathy,"<div style=""text-align: left;padding: 0 20vw;""><p style=""font-size:20px; color:black;""> Now, you will have 30 seconds to complete as many of the 32 trials as you can.",,no,82280,,13,html-button-response,
57,Empathetic,True,social,True,,,,females,Male,0.0-12.0-0.0,"I do not currently understand the goals of the study, my best guess is that it might be something related to how good somebody is able to shift their perspective depending on different demograpgic metrics",,arrowleft,1782,empathy,img/social/version2/1.png,,no,84063,,14,image-keyboard-response,
57,Empathetic,True,social,True,,,,females,Male,0.0-12.0-0.1,"I do not currently understand the goals of the study, my best guess is that it might be something related to how good somebody is able to shift their perspective depending on different demograpgic metrics",,arrowleft,794,empathy,img/social/version2/2.png,,no,84858,,15,image-keyboard-response,
57,Empathetic,True,social,True,,,,females,Male,0.0-12.0-0.2,"I do not currently understand the goals of the study, my best guess is that it might be something related to how good somebody is able to shift their perspective depending on different demograpgic metrics",,arrowright,818,empathy,img/social/version2/3.png,,no,85676,,16,image-keyboard-response,
57,Empathetic,True,social,True,,,,females,Male,0.0-12.0-0.3,"I do not currently understand the goals of the study, my best guess is that it might be something related to how good somebody is able to shift their perspective depending on different demograpgic metrics",,arrowright,1991,empathy,img/social/version2/4.png,,no,87667,,17,image-keyboard-response,
57,Empathetic,True,social,True,,,,females,Male,0.0-12.0-0.4,"I do not currently understand the goals of the study, my best guess is that it might be something related to how good somebody is able to shift their perspective depending on different demograpgic metrics",,arrowleft,768,empathy,img/social/version2/5.png,,no,88436,,18,image-keyboard-response,
57,Empathetic,True,social,True,,,,females,Male,0.0-12.0-0.5,"I do not currently understand the goals of the study, my best guess is that it might be something related to how good somebody is able to shift their perspective depending on different demograpgic metrics",,arrowleft,2539,empathy,img/social/version2/6.png,,no,90976,,19,image-keyboard-response,
57,Empathetic,True,social,True,,,,females,Male,0.0-12.0-0.6,"I do not currently understand the goals of the study, my best guess is that it might be something related to how good somebody is able to shift their perspective depending on different demograpgic metrics",,arrowright,600,empathy,img/social/version2/7.png,,no,91576,,20,image-keyboard-response,
57,Empathetic,True,social,True,,,,females,Male,0.0-12.0-0.7,"I do not currently understand the goals of the study, my best guess is that it might be something related to how good somebody is able to shift their perspective depending on different demograpgic metrics",,arrowright,2272,empathy,img/social/version2/8.png,,no,93849,,21,image-keyboard-response,
57,Empathetic,True,social,True,,,,females,Male,0.0-12.0-0.8,"I do not currently understand the goals of the study, my best guess is that it might be something related to how good somebody is able to shift their perspective depending on different demograpgic metrics",,arrowright,890,empathy,img/social/version2/9.png,,no,94739,,22,image-keyboard-response,
57,Empathetic,True,social,True,,,,females,Male,0.0-12.0-0.9,"I do not currently understand the goals of the study, my best guess is that it might be something related to how good somebody is able to shift their perspective depending on different demograpgic metrics",,arrowleft,445,empathy,img/social/version2/10.png,,no,95184,,23,image-keyboard-response,
57,Empathetic,True,social,True,,,,females,Male,0.0-12.0-0.10,"I do not currently understand the goals of the study, my best guess is that it might be something related to how good somebody is able to shift their perspective depending on different demograpgic metrics",,arrowright,762,empathy,img/social/version2/11.png,,no,95946,,24,image-keyboard-response,
57,Empathetic,True,social,True,,,,females,Male,0.0-12.0-0.11,"I do not currently understand the goals of the study, my best guess is that it might be something related to how good somebody is able to shift their perspective depending on different demograpgic metrics",,arrowleft,429,empathy,img/social/version2/12.png,,no,96376,,25,image-keyboard-response,
57,Empathetic,True,social,True,,,,females,Male,0.0-12.0-0.12,"I do not currently understand the goals of the study, my best guess is that it might be something related to how good somebody is able to shift their perspective depending on different demograpgic metrics",,arrowleft,2398,empathy,img/social/version2/13.png,,no,98774,,26,image-keyboard-response,
57,Empathetic,True,social,True,,,,females,Male,0.0-12.0-0.13,"I do not currently understand the goals of the study, my best guess is that it might be something related to how good somebody is able to shift their perspective depending on different demograpgic metrics",,arrowright,591,empathy,img/social/version2/14.png,,no,99366,,27,image-keyboard-response,
57,Empathetic,True,social,True,,,,females,Male,0.0-12.0-0.14,"I do not currently understand the goals of the study, my best guess is that it might be something related to how good somebody is able to shift their perspective depending on different demograpgic metrics",,arrowright,2580,empathy,img/social/version2/15.png,,no,101946,,28,image-keyboard-response,
57,Empathetic,True,social,True,,,,females,Male,0.0-12.0-0.15,"I do not currently understand the goals of the study, my best guess is that it might be something related to how good somebody is able to shift their perspective depending on different demograpgic metrics",,arrowleft,552,empathy,img/social/version2/16.png,,no,102498,,29,image-keyboard-response,
57,Empathetic,True,social,True,,,,females,Male,0.0-12.0-0.16,"I do not currently understand the goals of the study, my best guess is that it might be something related to how good somebody is able to shift their perspective depending on different demograpgic metrics",,arrowleft,1400,empathy,img/social/version2/17.png,,no,103898,,30,image-keyboard-response,
57,Empathetic,True,social,True,,,,females,Male,0.0-12.0-0.17,"I do not currently understand the goals of the study, my best guess is that it might be something related to how good somebody is able to shift their perspective depending on different demograpgic metrics",,arrowright,388,empathy,img/social/version2/18.png,,no,104287,,31,image-keyboard-response,
57,Empathetic,True,social,True,,,,females,Male,0.0-12.0-0.18,"I do not currently understand the goals of the study, my best guess is that it might be something related to how good somebody is able to shift their perspective depending on different demograpgic metrics",,arrowright,734,empathy,img/social/version2/19.png,,no,105021,,32,image-keyboard-response,
